time_seconds,ax,ay,az,gx,gy,gz,motion_magnitude
0.09592270851135254,-2940.0,7784.0,13544.0,12952.0,4920.0,-2262.0,15895.728734474555
0.15573859214782715,-1608.0,8920.0,13672.0,13284.0,4059.0,-1524.0,16403.525474726463
0.18178105354309082,-2520.0,8300.0,11656.0,12684.0,3062.0,-2196.0,14529.374934937841
0.20777392387390137,-3676.0,9016.0,13552.0,12358.0,1063.0,-1487.0,16687.058937991438
0.23495078086853027,-4156.0,10820.0,13640.0,11254.0,628.0,-1679.0,17899.56245275286
0.2609269618988037,-4392.0,9916.0,12624.0,8585.0,-3467.0,-4184.0,16642.779094850717
0.286776065826416,-2612.0,9300.0,11896.0,5849.0,-2959.0,-6125.0,15324.077786281301
0.3119199275970459,-3220.0,9976.0,12688.0,3131.0,1604.0,-6448.0,16458.259932325775
0.33536195755004883,-3128.0,11888.0,13920.0,1515.0,2453.0,-6058.0,18570.819260334207
0.3602769374847412,-3560.0,11864.0,13968.0,-92.0,690.0,-4724.0,18669.041753662666
0.38537049293518066,-3184.0,10540.0,14292.0,-2139.0,735.0,-3713.0,18041.361367701717
0.4109175205230713,-3544.0,11232.0,13280.0,-4394.0,-917.0,-2956.0,17750.384784561713
0.4373900890350342,-3272.0,10988.0,12940.0,-5227.0,-1485.0,-3162.0,17288.31188982892
0.4642825126647949,-3396.0,10224.0,12920.0,-5733.0,-4608.0,-2918.0,16822.288548232667
0.4918391704559326,-2728.0,10016.0,12720.0,-5218.0,-7140.0,-2347.0,16418.301982848287
0.5184259414672852,-3304.0,8696.0,11512.0,-3591.0,-9212.0,-2294.0,14800.776195862161
0.5423591136932373,-2688.0,8152.0,11276.0,-2339.0,-9042.0,-2555.0,14171.401624398342
0.5662150382995605,-2656.0,7572.0,11620.0,-492.0,-11165.0,-1261.0,14121.399364085699
0.5871970653533936,-1532.0,7720.0,11132.0,1234.0,-13707.0,551.0,13633.299233861186
0.6108050346374512,112.0,7816.0,11220.0,2633.0,-12722.0,732.0,13674.457941724784
0.6343502998352051,372.0,7848.0,11256.0,3583.0,-11669.0,1711.0,13726.872331306939
0.6563348770141602,860.0,8540.0,11284.0,4560.0,-12740.0,2928.0,14177.441800268482
0.6785540580749512,1480.0,8544.0,11172.0,4916.0,-11195.0,2421.0,14142.274215980964
0.7008674144744873,1684.0,9468.0,12084.0,5140.0,-10329.0,2220.0,15443.507891667618
0.7240753173828125,1144.0,10156.0,12036.0,5288.0,-11408.0,3447.0,15789.818491673677
0.746269941329956,2668.0,11012.0,12028.0,4969.0,-9791.0,3548.0,16524.380533018477
0.7681467533111572,3464.0,10652.0,12108.0,3595.0,-8966.0,2242.0,16494.4858664949
0.7915849685668945,3948.0,10536.0,11608.0,1982.0,-6364.0,1509.0,16166.003340343586
0.8142235279083252,4744.0,11172.0,11128.0,967.0,-6156.0,1433.0,16466.678596486905
0.8376815319061279,4688.0,10976.0,11028.0,679.0,-7222.0,2922.0,16250.129353331315
0.8611111640930176,2864.0,11832.0,11508.0,-291.0,-8142.0,2792.0,16752.097898472297
0.885103702545166,2828.0,12436.0,15020.0,-4499.0,-5559.0,-934.0,19704.113276166478
0.9100346565246582,4404.0,11552.0,12696.0,-6591.0,-7817.0,178.0,17720.957536205544
0.9348065853118896,4744.0,10136.0,12372.0,-8614.0,-7608.0,714.0,16682.63816067471
0.9565212726593018,5860.0,9756.0,12528.0,-10792.0,-6063.0,1861.0,16925.422299015172
0.9783670902252197,4840.0,9660.0,12396.0,-10676.0,-7405.0,3558.0,16443.9051322975
1.0002214908599854,4900.0,9092.0,11692.0,-8252.0,-7894.0,3701.0,15600.555374729453
1.022500991821289,5804.0,9176.0,10828.0,-4783.0,-5846.0,1080.0,15333.98108776713
1.0444340705871582,6752.0,8276.0,11032.0,-3246.0,-7102.0,506.0,15355.3477329561
1.0662815570831299,7584.0,8048.0,11348.0,-2674.0,-5835.0,-136.0,15845.013852944401
1.0887742042541504,7700.0,8752.0,12224.0,-2640.0,-4260.0,-272.0,16891.230861011874
1.111476182937622,8100.0,9428.0,12736.0,-3109.0,-3157.0,1059.0,17796.147897789568
1.1339316368103027,7504.0,10008.0,12744.0,-3048.0,-645.0,1933.0,17857.200676477823
1.156508445739746,8068.0,9464.0,12780.0,-2812.0,-53.0,1482.0,17832.227006181813
1.1802253723144531,7156.0,8136.0,12472.0,-2909.0,-975.0,626.0,16521.307938538037
1.2040061950683594,7020.0,7336.0,12504.0,-3294.0,-1099.0,418.0,16107.368251828106
1.2264444828033447,7560.0,6024.0,11536.0,-3017.0,-415.0,758.0,15050.63028580531
1.2481062412261963,7004.0,6320.0,12344.0,-1210.0,-683.0,752.0,15536.175591180732
1.2700819969177246,6804.0,7640.0,13648.0,-821.0,-1295.0,845.0,17056.726532368397
1.2928872108459473,6844.0,7668.0,13332.0,-585.0,-1647.0,434.0,16833.91766642572
1.3159582614898682,6784.0,7072.0,12912.0,-1323.0,-1765.0,-6.0,16209.737320512013
1.338299036026001,7468.0,6836.0,12384.0,-2605.0,-327.0,319.0,15995.792446765494
1.3608083724975586,7272.0,7208.0,12252.0,-3129.0,1712.0,809.0,15967.114704917729
1.3831202983856201,7876.0,7864.0,12296.0,-3672.0,915.0,1567.0,16585.098371731172
1.4065182209014893,7528.0,8232.0,13116.0,-4372.0,1049.0,2276.0,17218.18991648077
1.4297680854797363,9216.0,7456.0,13836.0,-4835.0,-1841.0,2487.0,18219.81031734414
1.4524731636047363,9152.0,8092.0,14020.0,-5380.0,-4713.0,1683.0,18595.697566910472
1.4755854606628418,8880.0,7120.0,13828.0,-6170.0,-4090.0,1751.0,17909.840423633035
1.498692274093628,10368.0,7424.0,13560.0,-5956.0,-957.0,2626.0,18614.10218087351
1.5218656063079834,10552.0,6144.0,12924.0,-5535.0,1311.0,1895.0,17779.85421762507
1.544346570968628,9768.0,6748.0,13528.0,-4765.0,678.0,1059.0,17998.780847601873
1.5671637058258057,8452.0,5632.0,16148.0,-2156.0,183.0,2211.0,19076.52043743827
1.5899393558502197,11220.0,4992.0,15948.0,2432.0,873.0,1526.0,20128.26788374996
1.6138079166412354,13528.0,7404.0,19908.0,10212.0,3159.0,-4825.0,25182.423711787553
1.637155294418335,12604.0,6812.0,16636.0,12594.0,-1401.0,-9204.0,21954.968822569528
1.6607575416564941,11320.0,6508.0,12816.0,11275.0,-1313.0,-12192.0,18296.07389578431
1.6843960285186768,10480.0,7068.0,11084.0,7834.0,-2163.0,-12642.0,16811.96240776192
1.7073149681091309,12484.0,8344.0,11664.0,4812.0,-3739.0,-13303.0,19013.71841592275
1.7304863929748535,13020.0,7516.0,12656.0,3860.0,-4153.0,-18295.0,19651.59006289313
1.7543208599090576,8164.0,6908.0,13752.0,3967.0,-6103.0,-21395.0,17420.931777605925
1.7771222591400146,5996.0,6860.0,14560.0,4779.0,-6620.0,-19602.0,17175.715880277014
1.8002636432647705,6172.0,7452.0,13732.0,6612.0,-6466.0,-17999.0,16798.622324464588
1.8229148387908936,5720.0,7824.0,11324.0,7243.0,-6687.0,-18360.0,14905.245787976795
1.8454954624176025,5892.0,8616.0,10828.0,6355.0,-7407.0,-17789.0,15039.837233161801
1.8680896759033203,4696.0,8632.0,9564.0,6669.0,-7345.0,-17988.0,13712.54666354868
1.8906359672546387,2260.0,8948.0,7152.0,6034.0,-11014.0,-17872.0,11675.847206948196
1.9140636920928955,1228.0,9344.0,6868.0,2502.0,-13916.0,-15937.0,11661.378306186623
1.9382004737854004,1876.0,9620.0,7800.0,-723.0,-13465.0,-13090.0,12526.123742004149
1.9621319770812988,1620.0,9424.0,7852.0,-1150.0,-14539.0,-11432.0,12372.95760923798
1.9867396354675293,-580.0,10880.0,5648.0,-2494.0,-21209.0,-9020.0,12272.355275170288
2.011810064315796,-852.0,9748.0,5972.0,-4876.0,-26262.0,-5539.0,11463.602924037452
2.0356128215789795,-1348.0,9596.0,6760.0,-6255.0,-29936.0,-461.0,11815.156367987687
2.059950351715088,1172.0,10216.0,8432.0,-8383.0,-25361.0,6345.0,13298.077455030858
2.083977460861206,5052.0,10948.0,11404.0,-10243.0,-13794.0,9029.0,16596.162930026927
2.109276294708252,5216.0,11028.0,11448.0,-8035.0,-6402.0,8579.0,16729.618764335308
2.1345295906066895,1824.0,11324.0,7556.0,-6538.0,-8352.0,7098.0,13735.104222393073
2.1605072021484375,1488.0,9120.0,8228.0,-9073.0,-10087.0,9602.0,12372.894891657328
2.1832597255706787,5748.0,10868.0,12192.0,-11542.0,-7687.0,14826.0,17314.669849581307
2.2055678367614746,9752.0,11244.0,15168.0,-8182.0,-4829.0,12576.0,21250.817960728007
2.2272846698760986,5396.0,9392.0,13124.0,-2817.0,-6299.0,8845.0,17016.634684919343
2.2490034103393555,-560.0,7172.0,9308.0,-1531.0,-6940.0,10149.0,11763.929955588821
2.2714664936065674,548.0,5156.0,9460.0,-4500.0,-5438.0,19962.0,10787.781977774672
2.2939951419830322,8172.0,5708.0,11972.0,-6470.0,-1184.0,27602.0,15578.563220014868
2.3169126510620117,16248.0,6716.0,14708.0,-2934.0,-1377.0,26412.0,22922.203733498227
2.3395018577575684,18244.0,7100.0,12944.0,2031.0,-2249.0,19396.0,23469.14297540496
2.361361026763916,14012.0,5808.0,10136.0,4110.0,-1485.0,14175.0,18243.012470532383
2.3837366104125977,10924.0,4788.0,8616.0,2803.0,-811.0,15896.0,14713.741060654833
2.405942440032959,13320.0,4088.0,9780.0,1275.0,1549.0,16963.0,17023.000440580385
2.4296464920043945,12984.0,3700.0,10644.0,2102.0,1461.0,15515.0,17192.12005542074
2.452796459197998,10108.0,1992.0,11736.0,4393.0,-1751.0,15219.0,15616.44722720248
2.475224256515503,9596.0,-116.0,11720.0,7190.0,-629.0,17931.0,15147.774490003474
2.4981071949005127,14032.0,944.0,9848.0,6977.0,964.0,21576.0,17168.903983656033
2.5215649604797363,17444.0,1064.0,9796.0,5832.0,2428.0,20274.0,20034.641199682115
2.5438249111175537,16836.0,584.0,11368.0,6548.0,-1379.0,17343.0,20322.97655364489
2.56736159324646,14064.0,256.0,13764.0,8812.0,-4497.0,14439.0,19680.176015473033
2.5907580852508545,13220.0,-1492.0,15104.0,12290.0,-1638.0,15284.0,20127.724163451763
2.613919496536255,16628.0,-2080.0,14168.0,15329.0,2129.0,17422.0,21944.2249350484
2.637254238128662,22556.0,-1420.0,13660.0,17852.0,4744.0,16952.0,26408.05059068162
2.661318063735962,24960.0,-1200.0,12492.0,19997.0,4103.0,11233.0,27937.2808984697
2.6852364540100098,23712.0,-1624.0,11864.0,21357.0,1992.0,4915.0,26564.0888418933
2.7087666988372803,22152.0,-2344.0,11292.0,22268.0,278.0,698.0,24974.280850506988
2.731966972351074,22172.0,-1580.0,10780.0,22722.0,-2735.0,-1751.0,24704.29889715553
2.755751371383667,24288.0,-2376.0,9736.0,23524.0,-1625.0,-6015.0,26274.360429894386
2.7789130210876465,21132.0,-1172.0,7052.0,23559.0,-786.0,-11041.0,22308.422445345615
2.8019840717315674,18288.0,200.0,5760.0,22091.0,-2070.0,-12743.0,19174.68497785557
2.825068712234497,17780.0,1952.0,4240.0,19930.0,-4100.0,-13525.0,18382.49993880049
2.849231243133545,19204.0,2320.0,3124.0,16444.0,-4833.0,-15549.0,19594.26936632239
2.8740456104278564,16824.0,2496.0,1748.0,12474.0,-4857.0,-18259.0,17097.73365098427
2.8981740474700928,15988.0,4364.0,2540.0,7868.0,-7327.0,-18692.0,16766.402118522627
2.922227382659912,17392.0,4544.0,4444.0,5457.0,-6877.0,-20190.0,18516.985067769536
2.9462597370147705,13828.0,4504.0,3660.0,5021.0,-5716.0,-23957.0,14996.506259792646
2.9706318378448486,7540.0,5184.0,2564.0,3494.0,-8383.0,-22097.0,9502.607642115927
2.994856834411621,9972.0,6936.0,2540.0,2069.0,-9018.0,-17986.0,12409.692985726922
3.018691301345825,10016.0,7872.0,380.0,444.0,-8319.0,-18500.0,12744.922126086138
3.0427496433258057,6148.0,8964.0,-1032.0,-4294.0,-10615.0,-17279.0,10918.618227596384
3.067392349243164,6224.0,8708.0,-296.0,-7985.0,-11430.0,-14076.0,10707.710119348581
3.092134952545166,5048.0,10052.0,-644.0,-10315.0,-14581.0,-11516.0,11266.753924711411
3.117119789123535,5364.0,10792.0,100.0,-13925.0,-19500.0,-7836.0,12051.960836312073
3.1412622928619385,7696.0,10084.0,2052.0,-16158.0,-20843.0,-6060.0,12850.143034223393
3.165297269821167,7348.0,10772.0,3508.0,-17689.0,-20549.0,-4725.0,13503.153409481802
3.1902878284454346,8036.0,10180.0,4624.0,-17812.0,-19854.0,-3056.0,13769.207384595527
3.2148361206054688,6344.0,10388.0,4560.0,-16778.0,-21818.0,-1237.0,12998.095245073411
3.2392630577087402,7068.0,9560.0,4144.0,-15986.0,-23851.0,3024.0,12590.590137082534
3.2638204097747803,10324.0,10048.0,2184.0,-16128.0,-22756.0,5925.0,14571.106203716998
3.288574457168579,11620.0,10000.0,-228.0,-18475.0,-23544.0,6517.0,15332.200885717615
3.312399387359619,11184.0,8996.0,-100.0,-22280.0,-26618.0,6947.0,14353.392351635901
3.336601734161377,12172.0,7804.0,3176.0,-24845.0,-24994.0,8754.0,14803.613612898711
3.361013650894165,13684.0,7112.0,5380.0,-24154.0,-20412.0,9390.0,16333.303401333118
3.3859448432922363,12148.0,7476.0,5676.0,-22386.0,-20538.0,9660.0,15351.920270767432
3.4113526344299316,14432.0,6972.0,7564.0,-21194.0,-17790.0,11020.0,17723.021864230715
3.4355711936950684,15240.0,6852.0,8932.0,-17802.0,-13943.0,10008.0,18946.982028808703
3.4609854221343994,12776.0,6364.0,9924.0,-14623.0,-9860.0,9846.0,17384.25862670019
3.4856905937194824,10876.0,5220.0,10076.0,-10656.0,-5152.0,11939.0,15718.191753506508
3.511289119720459,12504.0,4672.0,8852.0,-6707.0,-2285.0,15051.0,16016.725757782082
3.536118268966675,14536.0,4876.0,6804.0,-4549.0,-1242.0,15965.0,16773.94074151927
3.561316728591919,14656.0,3716.0,5720.0,-4130.0,788.0,15413.0,16165.561914143287
3.58711838722229,12840.0,2748.0,6320.0,-3742.0,-711.0,16230.0,14572.559967280971
3.6130311489105225,14412.0,1004.0,7188.0,-2195.0,616.0,17999.0,16136.328702651046
3.637871026992798,13396.0,1136.0,7488.0,-873.0,2133.0,19295.0,15388.74445820711
3.6633214950561523,16556.0,-236.0,7908.0,883.0,3411.0,20644.0,18349.204233426583
3.6885852813720703,18084.0,-384.0,8584.0,3621.0,2036.0,19768.0,20021.577560222373
3.713244915008545,18228.0,-444.0,9172.0,7138.0,148.0,18115.0,20410.357762665502
3.737758159637451,20748.0,-1816.0,8636.0,10053.0,1998.0,17587.0,22546.792587860473
3.7629990577697754,21576.0,-1840.0,8428.0,11693.0,3477.0,15669.0,23236.621096880674
3.7880353927612305,21868.0,-2692.0,9744.0,13422.0,3555.0,14520.0,24091.5301299025
3.812971353530884,23180.0,-3784.0,10756.0,17217.0,5298.0,12304.0,25832.587791392485
3.838531494140625,22896.0,-4176.0,9592.0,21048.0,3296.0,8149.0,25172.8475941837
3.864166021347046,20916.0,-4764.0,8940.0,22668.0,2035.0,4441.0,23240.01617899609
3.889082193374634,18172.0,-5260.0,8616.0,24227.0,1942.0,2676.0,20787.60784698422
3.9154818058013916,17412.0,-5376.0,8544.0,25054.0,287.0,2336.0,20126.575863767786
3.9415018558502197,17840.0,-5440.0,8476.0,26024.0,-18.0,1666.0,20486.624319296727
3.967453718185425,19164.0,-5880.0,8348.0,27717.0,103.0,451.0,21714.566539537464
3.9926767349243164,19680.0,-6620.0,6660.0,29733.0,969.0,-1166.0,21805.558924274334
4.018090486526489,19872.0,-5332.0,4260.0,29267.0,-262.0,-2944.0,21011.28763307951
4.0438878536224365,20232.0,-4624.0,3392.0,26817.0,-453.0,-4829.0,21029.048100187512
4.069281816482544,19952.0,-3424.0,3648.0,24835.0,893.0,-6473.0,20569.734660417962
4.09430456161499,18668.0,-2288.0,4008.0,23432.0,-525.0,-7367.0,19230.008632343357
4.119924545288086,20692.0,-2244.0,4808.0,23371.0,-147.0,-8304.0,21361.443396924282
4.145785808563232,19228.0,-636.0,2764.0,23965.0,-270.0,-11209.0,19436.053508878802
4.171776056289673,17388.0,396.0,2844.0,22509.0,-4148.0,-12702.0,17623.498404119426
4.197023153305054,17836.0,1836.0,1548.0,19703.0,-1819.0,-12820.0,17996.946852174675
4.219882249832153,17964.0,3476.0,216.0,16743.0,206.0,-13907.0,18298.4843088164
4.242531776428223,16720.0,3768.0,-784.0,13951.0,-1639.0,-16200.0,17157.239871261343
4.265989303588867,13188.0,4760.0,-1480.0,10375.0,-4208.0,-15764.0,14098.629153219117
4.288956165313721,15700.0,6064.0,-688.0,6601.0,-4959.0,-13366.0,16844.448343593802
4.311330080032349,17144.0,7600.0,-80.0,4243.0,-5615.0,-14503.0,18753.216684078496
4.333571195602417,15984.0,7632.0,908.0,2625.0,-5914.0,-16714.0,17735.8434814925
4.356374979019165,15236.0,7928.0,1628.0,2046.0,-5697.0,-17220.0,17252.224899994784
4.379541635513306,14296.0,8048.0,1376.0,3159.0,-5595.0,-18612.0,16463.271120892106
4.403212547302246,10432.0,8116.0,-520.0,3260.0,-8752.0,-18397.0,13227.489557735436
4.4262566566467285,10392.0,9844.0,-1020.0,749.0,-10882.0,-15266.0,14350.553996274848
4.449283123016357,12936.0,10060.0,-736.0,-886.0,-9127.0,-15783.0,16403.82248136086
4.471932888031006,10228.0,10640.0,-2056.0,-3074.0,-8190.0,-16959.0,14901.299272211132
4.494471549987793,10116.0,11580.0,-1696.0,-5618.0,-10830.0,-15383.0,15469.527206737768
4.516696453094482,12876.0,11604.0,4.0,-6937.0,-11363.0,-15748.0,17333.32651281917
4.539569139480591,11812.0,11184.0,-312.0,-7089.0,-10355.0,-19165.0,16269.681742431227
4.562760591506958,6444.0,10220.0,-1736.0,-8715.0,-11856.0,-19520.0,12206.03260687108
4.586174011230469,3232.0,10120.0,-2240.0,-9923.0,-17325.0,-15987.0,10857.15542856415
4.608745813369751,5212.0,11564.0,-984.0,-13331.0,-18372.0,-12740.0,12722.393485504212
4.6321117877960205,4520.0,11644.0,1212.0,-16246.0,-14767.0,-12581.0,12549.186427812761
4.654961347579956,3424.0,11280.0,2000.0,-15571.0,-14630.0,-10215.0,11956.67913762011
4.677572250366211,1956.0,11812.0,-144.0,-13710.0,-21413.0,-7598.0,11973.721894214848
4.700764417648315,-16.0,12692.0,-752.0,-15751.0,-32768.0,-2801.0,12714.26852005258
4.723167181015015,1512.0,12156.0,1860.0,-17115.0,-32768.0,3873.0,12390.079902890053
4.746531248092651,5004.0,11036.0,2672.0,-15525.0,-32768.0,9196.0,12408.581546655525
4.769477367401123,6816.0,12492.0,1388.0,-16088.0,-32768.0,12313.0,14298.058049959092
4.792765378952026,8200.0,11760.0,1460.0,-17773.0,-32768.0,13631.0,14410.732111867183
4.816816806793213,8636.0,12016.0,1156.0,-18534.0,-32768.0,14634.0,14842.54317831011
4.84024453163147,10288.0,11104.0,3032.0,-19977.0,-29639.0,14160.0,15438.09521929438
4.863510847091675,8668.0,10776.0,5748.0,-20613.0,-21221.0,13569.0,14976.511743393386
4.887338638305664,8824.0,8492.0,8972.0,-18622.0,-10689.0,14830.0,15181.364365563459
4.911230087280273,6280.0,8684.0,8604.0,-13907.0,-7923.0,15992.0,13743.328272292705
4.934887170791626,8268.0,7368.0,8688.0,-11179.0,-7166.0,20435.0,14075.81585557299
4.95855712890625,12588.0,7112.0,9372.0,-9600.0,-291.0,22116.0,17229.99338363193
4.981750965118408,13408.0,7436.0,7976.0,-8176.0,1691.0,21400.0,17282.509539994473
5.004918336868286,16128.0,6104.0,7596.0,-6893.0,-214.0,22070.0,18843.312235379428
5.028122901916504,17500.0,6568.0,7628.0,-6152.0,154.0,19656.0,20188.487016118866
5.051190137863159,15120.0,4880.0,9736.0,-6079.0,2362.0,17003.0,18633.79982719574
5.073732137680054,13324.0,3532.0,12644.0,-2969.0,4675.0,18480.0,18704.93881305149
5.09625244140625,18496.0,3036.0,15136.0,2280.0,5712.0,21645.0,24091.861862463018
5.119603872299194,21488.0,2916.0,13088.0,10035.0,6875.0,19522.0,25328.500626764308
5.143178224563599,19692.0,2104.0,9172.0,15013.0,3367.0,14469.0,21824.923001009647
5.166344404220581,13644.0,1452.0,8108.0,15980.0,-881.0,12188.0,15937.587772307326
5.188734292984009,13272.0,-828.0,8032.0,15822.0,7224.0,14922.0,15535.269292805966
5.211196422576904,14548.0,-628.0,7968.0,15600.0,6824.0,18609.0,16599.02744138945
5.234833717346191,16604.0,-768.0,9452.0,18006.0,3646.0,18529.0,19121.26941392752
5.257793664932251,18424.0,-1312.0,9692.0,21185.0,3704.0,16881.0,20859.050409834097
5.281142473220825,19288.0,-1668.0,8976.0,22968.0,6175.0,15330.0,21339.58162663926
5.303735733032227,20288.0,-2752.0,8320.0,23725.0,6922.0,13946.0,22099.74769086742
5.326906681060791,20204.0,-3072.0,8112.0,24101.0,8429.0,12111.0,21987.345087572532
5.350222110748291,19704.0,-3300.0,7484.0,24665.0,7753.0,10513.0,21334.194899269107
5.374009132385254,19988.0,-2468.0,8080.0,23710.0,5225.0,9560.0,21700.17437717955
5.397333145141602,20844.0,-2584.0,10308.0,23631.0,5772.0,7558.0,23396.67190008015
5.421071767807007,21204.0,-3152.0,11164.0,25857.0,7588.0,5122.0,24169.807942968848
5.4445953369140625,20692.0,-3960.0,10820.0,29227.0,6549.0,2865.0,23683.599050819957
5.467497110366821,19648.0,-2648.0,10464.0,30875.0,4668.0,1518.0,22417.651616527543
5.490015268325806,19800.0,-2972.0,8884.0,31910.0,4624.0,617.0,21904.297295279754
5.513177156448364,20532.0,-1544.0,7328.0,32016.0,3019.0,-1003.0,21855.12626364808
5.536198616027832,20988.0,-348.0,6988.0,31318.0,2162.0,-4026.0,22123.503158405994
5.559021234512329,19760.0,-976.0,6240.0,32176.0,3645.0,-6791.0,20744.825282465023
5.581569671630859,18300.0,-2052.0,3720.0,32767.0,3559.0,-7668.0,18786.673574637953
5.604865074157715,16364.0,-288.0,536.0,32767.0,2731.0,-8511.0,16375.308729914072
5.630746603012085,16264.0,236.0,-1828.0,30879.0,3420.0,-9243.0,16368.108504039188
5.655396938323975,14892.0,2812.0,-2176.0,26840.0,52.0,-10720.0,15310.584051563806
5.679078102111816,13740.0,3928.0,-4344.0,21013.0,2138.0,-10212.0,14936.101231579813
5.702199935913086,12484.0,5632.0,-6708.0,13812.0,2412.0,-9731.0,15250.145704221977
5.725450754165649,10560.0,6752.0,-7892.0,4591.0,-223.0,-9040.0,14811.710502166858
5.748759508132935,10328.0,7232.0,-6680.0,-4598.0,-3525.0,-7531.0,14268.560123572384
5.771955490112305,10792.0,6904.0,-4920.0,-11502.0,-5288.0,-5730.0,13723.661319050394
5.795543193817139,10808.0,8204.0,-3196.0,-17806.0,-6642.0,-4730.0,13940.333424993823
5.818866491317749,10864.0,7724.0,-452.0,-23750.0,-6032.0,-3866.0,13337.577591152001
5.842347145080566,11536.0,6556.0,2200.0,-27723.0,-4020.0,-2997.0,13449.923122456872
5.866095304489136,11504.0,6756.0,4588.0,-29155.0,-4465.0,-2422.0,14107.986957748437
5.890376329421997,12204.0,5716.0,6188.0,-27716.0,-5945.0,-1306.0,14829.080079357587
5.914001941680908,12040.0,6276.0,4992.0,-26303.0,-8578.0,-378.0,14466.161895955678
5.937363147735596,13256.0,6204.0,3980.0,-27978.0,-10748.0,1065.0,15167.450411984211
5.960855484008789,15040.0,4496.0,3596.0,-30588.0,-11429.0,1164.0,16104.248880342107
5.9839606285095215,15832.0,2732.0,3520.0,-32768.0,-13570.0,663.0,16447.080227201423
6.007659196853638,16672.0,1164.0,4776.0,-32768.0,-16577.0,-110.0,17381.61833662217
6.031378746032715,15736.0,-460.0,7264.0,-32768.0,-17587.0,-857.0,17337.79086273681
6.055140018463135,14892.0,-2180.0,8836.0,-32768.0,-18723.0,413.0,17452.763677996674
6.0786285400390625,16496.0,-3328.0,7852.0,-32768.0,-20257.0,2327.0,18570.07011295326
6.102076530456543,18608.0,-3184.0,8736.0,-32768.0,-18546.0,2774.0,20801.75992554476
6.124950647354126,19432.0,-3004.0,10232.0,-32768.0,-13552.0,2018.0,22165.74979557425
6.148162364959717,20180.0,-2756.0,8820.0,-28100.0,-12188.0,1672.0,22195.052061214003
6.171429634094238,20576.0,-2392.0,4780.0,-24560.0,-14322.0,566.0,21258.923773323993
6.194051742553711,20380.0,-3216.0,972.0,-25569.0,-14432.0,-830.0,20655.068143194298
6.2176830768585205,20352.0,-3456.0,1252.0,-29825.0,-13571.0,-1823.0,20681.28003775395
6.240523338317871,19456.0,-2440.0,5688.0,-32744.0,-12024.0,-2948.0,20416.730394458365
6.263809442520142,18996.0,-2648.0,12136.0,-30941.0,-6724.0,-4186.0,22696.749018306564
6.287289381027222,16820.0,-1768.0,17028.0,-23095.0,-2659.0,-4891.0,23999.81266593554
6.311048984527588,14632.0,-1884.0,19064.0,-11747.0,-323.0,-4171.0,24105.621253143425
6.3345396518707275,13472.0,-1416.0,16796.0,-1704.0,980.0,-1906.0,21577.89276087913
6.357545852661133,15080.0,-1300.0,14068.0,3655.0,4148.0,231.0,20664.099883614577
6.380402565002441,16760.0,-1304.0,11820.0,7832.0,5504.0,1138.0,20550.192602503754
6.403897285461426,18768.0,-592.0,9720.0,10905.0,3643.0,1116.0,21143.95157012993
6.4269514083862305,19188.0,-52.0,9376.0,12012.0,3523.0,-665.0,21356.297057308413
6.450260877609253,18620.0,-484.0,12368.0,12981.0,7564.0,-1792.0,22358.579561322764
6.473688840866089,18660.0,-1304.0,15324.0,17526.0,11931.0,-2274.0,24181.004776476926
6.496540069580078,17712.0,-2816.0,14188.0,24643.0,13594.0,-2145.0,22867.97201327656
6.519075632095337,18260.0,-2744.0,11032.0,28627.0,13526.0,-1333.0,21509.582980615873
6.54186749458313,19564.0,-2220.0,9128.0,29243.0,15319.0,-1983.0,21702.50861075742
6.565469980239868,19476.0,-2232.0,8296.0,29627.0,15545.0,-2705.0,21286.615888863125
6.588916063308716,19348.0,-1668.0,6856.0,29809.0,14913.0,-3183.0,20594.46682970938
6.611492156982422,18020.0,-168.0,5868.0,29236.0,13923.0,-3628.0,18952.098775597387
6.634697675704956,18672.0,772.0,8336.0,27908.0,14309.0,-4305.0,20462.855714684596
6.657571077346802,18500.0,244.0,8536.0,30913.0,16985.0,-4867.0,20375.79034049968
6.680321216583252,17484.0,800.0,3796.0,32767.0,14386.0,-4733.0,17909.211931293907
6.702783107757568,17364.0,1888.0,736.0,29921.0,14799.0,-6285.0,17481.840177738726
6.725976228713989,13728.0,3056.0,2112.0,24672.0,16388.0,-7091.0,14221.732102665976
6.749435901641846,12116.0,4224.0,5208.0,23719.0,12350.0,-4695.0,13847.848063868985
6.772528409957886,14596.0,4692.0,6280.0,25547.0,10017.0,-3693.0,16567.93529683165
6.795703172683716,16968.0,5248.0,3412.0,27671.0,10234.0,-3825.0,18085.80305101214
6.8191938400268555,18976.0,7704.0,-1788.0,25790.0,6744.0,-5851.0,20558.14038282646
6.842644214630127,17100.0,9300.0,-5800.0,19410.0,1158.0,-10171.0,20311.080719646605
6.866796493530273,15096.0,10528.0,-5248.0,10256.0,-2778.0,-11767.0,19138.168773422392
6.890263319015503,17644.0,11168.0,-916.0,4588.0,-5423.0,-13444.0,20901.53142714667
6.913585186004639,16428.0,11504.0,1520.0,2543.0,-7168.0,-16700.0,20112.970939172563
6.937329530715942,15696.0,10536.0,3604.0,2938.0,-8566.0,-19270.0,19244.753259005425
6.960803031921387,14284.0,10004.0,3924.0,4735.0,-8550.0,-22271.0,17874.855188224603
6.984823226928711,10848.0,10928.0,2452.0,4995.0,-11002.0,-23338.0,15592.06823997381
7.007584810256958,8248.0,9988.0,1052.0,4700.0,-15257.0,-24200.0,12996.012927048048
7.030005216598511,4240.0,10516.0,-1728.0,3859.0,-23799.0,-22329.0,11469.517862578183
7.052680492401123,4032.0,11152.0,-3312.0,204.0,-32768.0,-19872.0,12312.330080045775
7.076001405715942,676.0,12220.0,-2180.0,-6626.0,-32768.0,-17876.0,12431.322375354925
7.099096775054932,3384.0,13468.0,4216.0,-13025.0,-32768.0,-14117.0,14512.516528845023
7.121785402297974,4584.0,14040.0,11168.0,-11325.0,-32768.0,-14982.0,18516.448903610002
7.145554780960083,3076.0,13724.0,13896.0,-3315.0,-32316.0,-16651.0,19771.41289842484
7.16813588142395,4392.0,13956.0,13524.0,4993.0,-29925.0,-18157.0,19923.80927433306
7.191027402877808,3884.0,13352.0,11080.0,9689.0,-20000.0,-21560.0,17779.98200224061
7.214366912841797,-2096.0,13884.0,6448.0,12817.0,-10427.0,-23852.0,15451.063911588742
7.237202405929565,-4704.0,12996.0,1896.0,13941.0,-9376.0,-21327.0,13950.571601192547
7.260052919387817,-3620.0,13784.0,188.0,12572.0,-10085.0,-18401.0,14252.662909084744
7.282600164413452,-4640.0,13644.0,-1308.0,11120.0,-4706.0,-19163.0,14470.632328961994
7.305570840835571,-9972.0,13036.0,-4196.0,10610.0,-4919.0,-17471.0,16940.6167538257
7.32789945602417,-6804.0,13636.0,-3748.0,6835.0,-4225.0,-13228.0,15693.38765212916
7.35115385055542,-7060.0,13628.0,-2384.0,6223.0,-1153.0,-14276.0,15532.206539960765
7.374163627624512,-7792.0,13620.0,-2216.0,6345.0,2195.0,-14312.0,15847.091846771129
7.397393226623535,-9528.0,11640.0,-2912.0,7987.0,3827.0,-14078.0,15321.622890542634
7.4222731590271,-11760.0,11420.0,-4580.0,9724.0,3.0,-11713.0,17020.293769497635
7.446344614028931,-14636.0,11264.0,-6276.0,9737.0,-3650.0,-9566.0,19505.85471082977
7.470327615737915,-18116.0,10764.0,-7764.0,8521.0,-3609.0,-6416.0,22457.356211272956
7.4942522048950195,-20512.0,10760.0,-8540.0,4107.0,-3108.0,-39.0,24687.068355720166
7.517883777618408,-16032.0,10260.0,-4548.0,-693.0,-7072.0,9925.0,19569.796319839406
7.541284799575806,-11776.0,11924.0,1496.0,1060.0,-12331.0,12635.0,16825.396518358786
7.564575672149658,-11436.0,11520.0,3884.0,8573.0,-10180.0,11568.0,16690.654630660836
7.5871710777282715,-11784.0,10716.0,-256.0,13829.0,-5245.0,13353.0,15929.872818073596
7.609929084777832,-9748.0,11236.0,-4428.0,15481.0,-4640.0,15673.0,15520.257214363426
7.633435010910034,-9728.0,12212.0,-7068.0,14919.0,-6049.0,15817.0,17138.36491617564
7.656828165054321,-10080.0,11884.0,-7592.0,12628.0,-5513.0,17189.0,17334.19510678243
7.679778814315796,-5148.0,10940.0,-5324.0,9895.0,-2895.0,20407.0,13210.99844826272
7.703051328659058,-980.0,11104.0,-3704.0,12306.0,-7016.0,19977.0,11746.439120005687
7.725628614425659,-2764.0,12228.0,-4552.0,16459.0,-8239.0,17020.0,13337.3304675261
7.748216390609741,-4048.0,11412.0,-6096.0,18512.0,2757.0,15352.0,13556.594852690701
7.770352602005005,-4412.0,10128.0,-8600.0,18630.0,13958.0,15969.0,14000.075999793715
7.793602705001831,-2176.0,8356.0,-10452.0,18581.0,15113.0,19666.0,13557.360215027113
7.816545248031616,2536.0,10412.0,-13896.0,16786.0,13377.0,21618.0,17548.215179897925
7.839857578277588,3460.0,11568.0,-15540.0,11907.0,602.0,21772.0,19679.477228829022
7.863089084625244,7760.0,11760.0,-13128.0,7941.0,-1313.0,18864.0,19257.71492155806
7.88612174987793,9032.0,11432.0,-11640.0,7158.0,9477.0,10988.0,18648.250534567578
7.90957236289978,4812.0,10164.0,-12668.0,6084.0,21856.0,4041.0,16939.317105479782
7.933136463165283,4300.0,8808.0,-11416.0,3072.0,29060.0,3127.0,15046.458719579168
7.955523729324341,6400.0,7748.0,-9392.0,3135.0,30461.0,3853.0,13755.041548465057
7.978456020355225,6892.0,8268.0,-8416.0,4346.0,29513.0,4443.0,13663.401626242274
8.000759363174438,6264.0,7052.0,-9336.0,5480.0,27412.0,5574.0,13271.371293125665
8.023207664489746,6804.0,6512.0,-8972.0,4675.0,23324.0,9232.0,13007.587939352938
8.046747207641602,8364.0,5236.0,-8776.0,5198.0,20910.0,12429.0,13205.694529255174
8.06946086883545,9896.0,4112.0,-10156.0,4366.0,22275.0,14162.0,14764.270926801635
8.092216968536377,10816.0,3868.0,-10784.0,906.0,23895.0,14823.0,15755.695351205544
8.11483383178711,11032.0,3676.0,-8552.0,-3664.0,23732.0,15766.0,14434.497012365897
8.138711214065552,11828.0,1944.0,-5740.0,-5173.0,23564.0,17417.0,13290.158765041146
8.162384271621704,13124.0,1288.0,-5624.0,-5443.0,23681.0,17740.0,14336.237163216852
8.18530011177063,12868.0,1440.0,-5616.0,-7554.0,21986.0,18449.0,14113.769163480038
8.207862138748169,15336.0,-444.0,-5012.0,-8982.0,18161.0,21091.0,16140.327629884097
8.230591773986816,19652.0,-1568.0,-6292.0,-9114.0,15736.0,22687.0,20694.177731912907
8.253375768661499,22340.0,-1460.0,-8312.0,-12558.0,13846.0,20566.0,23880.88239575749
8.28078293800354,23168.0,-1888.0,-7464.0,-17588.0,11954.0,16744.0,24413.767918942787
8.303411960601807,22756.0,-2612.0,-5552.0,-21439.0,11233.0,12804.0,23568.682271183512
8.325592041015625,22136.0,-3520.0,-4284.0,-23397.0,8866.0,10034.0,22819.84995568551
8.348119974136353,21744.0,-4168.0,-3624.0,-25085.0,4838.0,7776.0,22434.50770576435
8.372455358505249,21376.0,-4320.0,-1552.0,-27590.0,2979.0,5719.0,21863.313564050623
8.395204544067383,21864.0,-4692.0,1384.0,-28048.0,3555.0,3632.0,22404.57131926429
8.417787551879883,22628.0,-4680.0,2716.0,-26144.0,2531.0,1886.0,23265.971718370158
8.440158128738403,23736.0,-4252.0,2076.0,-24315.0,449.0,-365.0,24203.03650371168
8.463027715682983,23392.0,-4428.0,2016.0,-23672.0,-1088.0,-3906.0,23892.616097865885
8.48688530921936,21032.0,-3692.0,2192.0,-23643.0,-3892.0,-6100.0,21465.8042476866
8.509214162826538,21680.0,-3164.0,3800.0,-24023.0,-4482.0,-6544.0,22236.75551873519
8.531333446502686,23596.0,-1064.0,4652.0,-23707.0,-931.0,-9267.0,24073.72875148343
8.553735733032227,22420.0,-1028.0,3368.0,-22552.0,-615.0,-14156.0,22694.858624807515
8.575944900512695,23056.0,-644.0,5948.0,-21198.0,-2944.0,-15709.0,23819.583875458447
8.59863567352295,27132.0,-2688.0,7764.0,-15564.0,4190.0,-17355.0,28348.729495340704
8.62319016456604,26872.0,1052.0,5892.0,-10812.0,4684.0,-24058.0,27530.469520151666
8.64715027809143,22572.0,736.0,5400.0,-8309.0,2423.0,-30894.0,23220.613256328954
8.671329975128174,18260.0,8.0,6004.0,-5959.0,3214.0,-32768.0,19221.750180459636
8.695472478866577,13424.0,2192.0,6280.0,-2794.0,1914.0,-32768.0,14981.556661442095
8.71960997581482,13424.0,3304.0,5976.0,-152.0,-506.0,-29468.0,15060.968361961324
8.743532180786133,15956.0,5004.0,6316.0,1634.0,458.0,-28913.0,17875.284836891413
8.767071008682251,12872.0,6908.0,6040.0,3018.0,3880.0,-32700.0,15807.923582811249
8.790507316589355,7508.0,6560.0,6256.0,4207.0,7372.0,-32768.0,11770.352586052806
8.815399885177612,3920.0,7344.0,5588.0,8772.0,9602.0,-30582.0,10026.289443258658
8.838378429412842,2424.0,9360.0,2832.0,12147.0,5440.0,-24916.0,10074.998759305134
8.860921144485474,3984.0,11184.0,888.0,11990.0,5838.0,-21235.0,11905.572476785817
8.883814096450806,4200.0,12048.0,-888.0,11779.0,10891.0,-21066.0,12789.951055418469
8.906416416168213,2132.0,12436.0,-1984.0,11106.0,14554.0,-20004.0,12772.461626483753
8.929445505142212,2428.0,12836.0,-3440.0,10301.0,15105.0,-16710.0,13508.948145581135
8.952756643295288,4344.0,13340.0,-4928.0,9448.0,12927.0,-14615.0,14869.805647687532
8.974973440170288,4204.0,14032.0,-5292.0,7583.0,12541.0,-15890.0,15574.848442280265
8.99965524673462,2100.0,13344.0,-7692.0,5968.0,12298.0,-17871.0,15544.74830931656
9.022221088409424,-1152.0,13924.0,-7912.0,820.0,10389.0,-17874.0,16056.295463150895
9.044493198394775,-4624.0,13920.0,-7404.0,-2469.0,8812.0,-16852.0,16430.67229300128
9.067342519760132,-7792.0,13308.0,-6660.0,-3967.0,3988.0,-13122.0,16798.027503251684
9.090014457702637,-10360.0,13444.0,-6960.0,-5999.0,2177.0,-7435.0,18344.272566662326
9.112293720245361,-9720.0,12816.0,-5036.0,-9995.0,-1614.0,1375.0,16854.956303710787
9.135010480880737,-5432.0,12556.0,-1788.0,-11640.0,-3893.0,10570.0,13796.981698907917
9.157761573791504,-2952.0,14400.0,120.0,-10025.0,-8501.0,15252.0,14699.955918301252
9.179966688156128,-4760.0,15500.0,36.0,-7373.0,-12174.0,16877.0,16214.465640285529
9.203107357025146,-6344.0,13068.0,-544.0,-6476.0,-11101.0,19510.0,14536.674172588446
9.226221323013306,-4856.0,9648.0,1036.0,-8620.0,-4543.0,25779.0,10850.71131308911
9.248834609985352,-528.0,6796.0,1904.0,-9383.0,4504.0,31692.0,7077.401783140477
9.273429155349731,2092.0,7944.0,-1904.0,-9926.0,2154.0,32767.0,8432.604342668996
9.30211591720581,5012.0,7060.0,-1444.0,-13887.0,-6337.0,32767.0,8777.749142006736
9.325496435165405,9904.0,5804.0,4616.0,-17832.0,-4043.0,32767.0,12372.675054328389
9.349843502044678,12804.0,4736.0,8020.0,-16287.0,1066.0,32767.0,15833.27230865433
9.373765707015991,14100.0,4136.0,9072.0,-12385.0,-89.0,32767.0,17268.980282576038
9.397448539733887,15828.0,4712.0,10592.0,-9760.0,-1576.0,32767.0,19619.352486766733
9.422065734863281,16848.0,4256.0,12076.0,-6475.0,-3713.0,31839.0,21161.247978321127
9.446391582489014,16076.0,1108.0,12560.0,-375.0,-4838.0,29346.0,20430.835518891538
9.47014832496643,16328.0,-1260.0,9340.0,4029.0,2117.0,28956.0,18852.76595091553
9.493962049484253,16720.0,-2164.0,6156.0,4249.0,3148.0,29256.0,17948.19300096809
9.51891803741455,13620.0,-2024.0,4968.0,2592.0,-3206.0,29185.0,14638.374226668753
9.542255163192749,16544.0,-6128.0,8528.0,2798.0,-5121.0,31711.0,19595.48682732838
9.566300630569458,21820.0,-7900.0,7680.0,6167.0,2598.0,31428.0,24443.911307317412
9.5905601978302,23864.0,-6444.0,5344.0,7549.0,2250.0,26937.0,25289.7996828761
9.614721059799194,22256.0,-6180.0,4900.0,6551.0,3467.0,22000.0,23612.114178954835
9.638652086257935,22212.0,-7504.0,4912.0,5875.0,4628.0,19052.0,23954.346244470962
9.662816524505615,24708.0,-8584.0,4104.0,6157.0,4672.0,16742.0,26476.65265852162
9.687169313430786,26004.0,-8216.0,2272.0,5827.0,1924.0,12432.0,27365.537743665845
9.711029529571533,26172.0,-7032.0,2168.0,2775.0,-163.0,7952.0,27186.81356834596
9.734442949295044,27768.0,-6992.0,3764.0,618.0,-264.0,2256.0,28881.093885100683
9.759198904037476,25740.0,-6400.0,4544.0,586.0,-1983.0,-4289.0,26910.13816389652
9.783947467803955,24408.0,-7016.0,5164.0,500.0,-4528.0,-7925.0,25916.04939029095
9.808814525604248,22612.0,-6296.0,5736.0,1117.0,-4393.0,-12356.0,24162.861088869424
9.83306336402893,20028.0,-6172.0,6556.0,2061.0,-3887.0,-15710.0,21958.950430291516
9.857366800308228,17964.0,-5820.0,6208.0,3757.0,-5061.0,-16462.0,19877.54914470091
9.882198333740234,21736.0,-5200.0,6068.0,4591.0,-7705.0,-15771.0,23158.4610887684
9.906131267547607,25124.0,-3180.0,6348.0,5214.0,-6549.0,-19765.0,26107.946682954596
9.92974853515625,24400.0,-4048.0,5608.0,6114.0,-4528.0,-26765.0,25361.308483593664
9.9534752368927,18912.0,-3212.0,4544.0,5905.0,-4949.0,-31181.0,19713.665919863815
9.976826906204224,14956.0,-2908.0,4764.0,5442.0,-4553.0,-31105.0,15963.523921741089
10.00135064125061,13172.0,-1380.0,6628.0,6712.0,-1995.0,-28696.0,14810.009047937818
10.026541471481323,16164.0,-420.0,7532.0,10223.0,1231.0,-25994.0,17837.66576657383
10.050742864608765,14200.0,2820.0,5808.0,15759.0,4580.0,-27256.0,15598.886626935911
10.074469089508057,10928.0,3236.0,2936.0,17804.0,3744.0,-28808.0,11769.153580440694
10.098540306091309,9160.0,4496.0,960.0,15624.0,4690.0,-25398.0,10248.961703509287
10.123030424118042,9720.0,5840.0,-1084.0,13299.0,8564.0,-22711.0,11391.183257238907
10.147531509399414,11472.0,6940.0,-1296.0,11431.0,9527.0,-21199.0,13470.337783441068
10.171436071395874,10156.0,8004.0,-2500.0,11125.0,9523.0,-21985.0,13170.358840973164
10.195222616195679,10232.0,9408.0,-2716.0,8416.0,7387.0,-20754.0,14162.660202094803
10.218989372253418,9112.0,10492.0,-2052.0,6350.0,7080.0,-20700.0,14047.110450195798
10.243269205093384,6312.0,10868.0,-1700.0,4784.0,6694.0,-20019.0,12682.459067546799
10.267125129699707,5716.0,11524.0,-776.0,2829.0,5141.0,-17158.0,12887.10238959868
10.290248394012451,5868.0,12336.0,132.0,2462.0,4634.0,-15600.0,13661.176523272072
10.314183235168457,6328.0,12448.0,660.0,3026.0,2662.0,-14914.0,13979.69556177816
10.338597536087036,5576.0,13524.0,-52.0,2662.0,3016.0,-15183.0,14628.501495368553
10.36261773109436,4824.0,14048.0,-756.0,1143.0,3461.0,-14671.0,14872.417960775578
10.387328863143921,6324.0,14252.0,1120.0,105.0,4077.0,-14517.0,15632.238483339486
10.410933017730713,4456.0,14008.0,760.0,1633.0,2734.0,-16000.0,14719.293461304453
10.435462713241577,1828.0,14516.0,-520.0,782.0,689.0,-14904.0,14639.885245451891
10.459994077682495,2568.0,15052.0,1236.0,-735.0,4087.0,-13612.0,15319.432887675704
10.483853101730347,3704.0,15296.0,2608.0,-495.0,5329.0,-13864.0,15952.708108656661
10.507729053497314,2776.0,15400.0,2716.0,818.0,4115.0,-14743.0,15882.154513793146
10.532118797302246,1044.0,15608.0,2872.0,1684.0,3545.0,-15775.0,15904.338527584227
10.55643606185913,-1312.0,15456.0,2668.0,2473.0,2430.0,-15845.0,15739.361613483567
10.58063554763794,-4296.0,15532.0,576.0,2896.0,756.0,-14911.0,16125.458629136723
10.605083703994751,-5380.0,15028.0,-3048.0,912.0,-1520.0,-13299.0,16250.39962585536
10.629766464233398,-4912.0,14832.0,-2820.0,-3080.0,-382.0,-11305.0,15876.66110994374
10.653636932373047,-3572.0,14132.0,-1020.0,-5673.0,2304.0,-10188.0,14612.084314018995
10.677967548370361,-5480.0,14304.0,-1008.0,-5600.0,2483.0,-9884.0,15350.924402132921
10.702059984207153,-7624.0,14780.0,-2600.0,-6672.0,-765.0,-8025.0,16832.521379757698
10.726107597351074,-8188.0,13624.0,-2120.0,-9834.0,-4874.0,-4111.0,16035.932152512993
10.750208377838135,-6504.0,14296.0,1856.0,-12844.0,-6766.0,29.0,15815.257443367782
10.774269819259644,-5820.0,15348.0,5848.0,-13051.0,-5131.0,1653.0,17425.0569009114
10.798972606658936,-5420.0,15848.0,7812.0,-11460.0,-2369.0,1786.0,18481.41899314011
10.824006080627441,-5036.0,14900.0,9124.0,-9682.0,897.0,1543.0,18182.922537370057
10.848326206207275,-5408.0,15200.0,10324.0,-8017.0,6875.0,1767.0,19153.888378081356
10.873452186584473,-8136.0,15440.0,9912.0,-5168.0,8401.0,2245.0,20070.7707873913
10.898360252380371,-9672.0,14372.0,7752.0,-2755.0,6137.0,4914.0,18978.816401451382
10.922866821289062,-9540.0,14436.0,7156.0,-2298.0,4041.0,8894.0,18724.797248568542
10.946978092193604,-8060.0,14052.0,8468.0,-2281.0,5647.0,12983.0,18279.2047967082
10.970879554748535,-7104.0,14168.0,8396.0,-10.0,5542.0,15654.0,17935.770292909085
10.994976282119751,-5984.0,13324.0,6548.0,1946.0,5134.0,17807.0,16006.671609051022
11.019242763519287,-3748.0,11860.0,3572.0,2351.0,5656.0,19876.0,12940.876631820582
11.043805599212646,-2284.0,12320.0,320.0,11.0,6624.0,21381.0,12534.011967442826
11.067651510238647,-1412.0,11948.0,-272.0,-4407.0,4918.0,22458.0,12034.219210235453
11.091447830200195,208.0,10828.0,2204.0,-7525.0,2805.0,23606.0,11051.989142231365
11.116152048110962,1436.0,10468.0,5128.0,-7772.0,2508.0,24800.0,11744.679816836217
11.141059398651123,2864.0,10092.0,6328.0,-6267.0,2937.0,25253.0,12251.307848552333
11.16495943069458,3156.0,9020.0,6224.0,-4820.0,3986.0,25079.0,11404.337420472966
11.188961029052734,2740.0,8372.0,6992.0,-5100.0,3431.0,27394.0,11246.601620045052
11.213053464889526,6148.0,7576.0,9260.0,-5152.0,1754.0,32423.0,13451.441558435288
11.237896919250488,12536.0,7792.0,11608.0,-2547.0,121.0,32767.0,18777.971775460734
11.262731790542603,16480.0,8432.0,11784.0,1789.0,-293.0,32767.0,21944.2858165856
11.287196159362793,17616.0,9024.0,10156.0,5085.0,-824.0,26721.0,22246.356285917926
11.311373472213745,17152.0,8608.0,10048.0,6574.0,-921.0,21487.0,21662.20376600682
11.335600137710571,15984.0,7020.0,9916.0,8375.0,482.0,18761.0,20077.243635519295
11.35928726196289,16560.0,6316.0,9164.0,10383.0,795.0,18643.0,19952.552518412274
11.383370637893677,18540.0,5852.0,7764.0,12184.0,1841.0,17405.0,20934.593380335813
11.407217741012573,19580.0,5916.0,6728.0,12846.0,4358.0,13979.0,21532.334754967935
11.43118143081665,18396.0,5772.0,6332.0,12608.0,5942.0,10828.0,20293.423171067025
11.455406665802002,18448.0,4748.0,7776.0,13430.0,6233.0,9533.0,20575.188553206506
11.479423522949219,18960.0,5428.0,9196.0,15446.0,8440.0,7810.0,21760.31249775609
11.503271579742432,18764.0,5524.0,8064.0,18562.0,7336.0,5352.0,21157.276951441552
11.527273178100586,17692.0,5652.0,5492.0,19008.0,6215.0,3463.0,19367.860800821552
11.551408290863037,17592.0,5364.0,4004.0,18119.0,3946.0,2250.0,18822.406222372312
11.574933767318726,18124.0,6324.0,3376.0,16695.0,1032.0,855.0,19490.246996895654
11.598437786102295,18640.0,6260.0,2632.0,15281.0,474.0,-1105.0,19838.463246935233
11.622156620025635,17688.0,7108.0,1824.0,13444.0,502.0,-3177.0,19149.82986869596
11.645914316177368,16464.0,7592.0,1888.0,11403.0,429.0,-4944.0,18228.173358842076
11.669593095779419,15240.0,7324.0,2760.0,10376.0,409.0,-5325.0,17132.313795865404
11.69308876991272,14420.0,7392.0,2360.0,10938.0,-623.0,-5092.0,16375.21492988718
11.716856479644775,14720.0,7356.0,1596.0,10980.0,-1532.0,-4835.0,16532.88698322226
11.74015760421753,14092.0,8080.0,628.0,10550.0,-1743.0,-4662.0,16256.23720299381
11.764071702957153,13280.0,8572.0,-276.0,10154.0,-2093.0,-4897.0,15808.660917357927
11.788172960281372,12988.0,8404.0,-580.0,9076.0,-2471.0,-4666.0,15480.689907106853
11.813353776931763,12136.0,9000.0,32.0,8819.0,-1898.0,-4542.0,15109.054239097826
11.83804440498352,11520.0,8900.0,-900.0,9501.0,-1231.0,-3836.0,14585.280250992779
11.86362624168396,10896.0,9456.0,-2820.0,8562.0,-1483.0,-2674.0,14700.039183621246
11.888603448867798,10944.0,9476.0,-3600.0,6817.0,-260.0,-1639.0,14917.295733476627
11.912899255752563,11992.0,9864.0,-4180.0,4983.0,-679.0,-386.0,16080.390542521036
11.937408447265625,13256.0,10268.0,-5468.0,2207.0,-1243.0,99.0,17636.67723807407
11.962060928344727,14592.0,10092.0,-5052.0,-1449.0,-2114.0,-498.0,18447.157829866366
11.985904932022095,15616.0,9856.0,-4332.0,-3897.0,-3594.0,-1334.0,18967.50948332437
12.00963807106018,16908.0,9472.0,-4444.0,-5983.0,-4824.0,-2488.0,19883.36953335626
12.033435106277466,16548.0,10176.0,-4488.0,-8521.0,-7247.0,-4736.0,19938.139933303708
12.058265924453735,16168.0,9788.0,-2380.0,-11367.0,-6956.0,-6549.0,19049.24061478567
12.082560062408447,16724.0,9408.0,-3304.0,-12735.0,-8002.0,-7778.0,19470.979841805598
12.106879472732544,19096.0,8424.0,-3612.0,-14608.0,-12062.0,-8568.0,21181.77367455332
12.13110899925232,19080.0,9916.0,-2084.0,-16198.0,-12697.0,-12043.0,21603.622659174547
12.155252695083618,16772.0,9972.0,1640.0,-17429.0,-9985.0,-15895.0,19581.37809246326
12.179269552230835,13524.0,9216.0,4380.0,-14904.0,-8024.0,-18101.0,16941.594730130928
12.20328164100647,10856.0,9612.0,1992.0,-11031.0,-9420.0,-18317.0,14635.960644932056
12.227464437484741,10504.0,10840.0,-176.0,-11498.0,-11521.0,-17529.0,15095.383135250328
12.251615047454834,11248.0,10540.0,-424.0,-13112.0,-11084.0,-19118.0,15420.404663950943
12.275676488876343,8244.0,10532.0,-1436.0,-16015.0,-9722.0,-21877.0,13451.71572699929
12.299970865249634,3764.0,10152.0,-512.0,-19614.0,-9741.0,-21292.0,10839.41622044287
12.323970079421997,1916.0,10960.0,3440.0,-21588.0,-8169.0,-18831.0,11645.868623679386
12.347602605819702,3392.0,10784.0,7732.0,-20076.0,-6122.0,-15735.0,13696.136097454639
12.371981859207153,3152.0,11508.0,5688.0,-16180.0,-6788.0,-14809.0,13218.26433386774
12.396031141281128,1512.0,16772.0,2552.0,-20640.0,-9742.0,-13350.0,17032.28792617128
12.42007327079773,5800.0,11952.0,6960.0,-25359.0,-2332.0,-14931.0,14997.729961564184
12.44364857673645,3036.0,11496.0,7376.0,-23134.0,648.0,-17014.0,13992.165236302779
12.467159032821655,1244.0,11268.0,8144.0,-21961.0,-3479.0,-15328.0,13958.513387893425
12.490699529647827,328.0,11728.0,9980.0,-20485.0,-9717.0,-13592.0,15403.05060694147
12.514133214950562,860.0,11308.0,15904.0,-18465.0,-5163.0,-12661.0,19533.245506059662
12.538449048995972,-1684.0,12488.0,16584.0,-13045.0,-2966.0,-11224.0,20828.227384969658
12.562467575073242,-1276.0,11612.0,15724.0,-7258.0,-3701.0,-9140.0,19588.539914960482
12.587191581726074,-1084.0,13004.0,14656.0,-4207.0,-1854.0,-7644.0,19623.38930969877
12.610882759094238,-1072.0,11856.0,12588.0,-2267.0,748.0,-7379.0,17325.462879819403
12.634908676147461,-1900.0,12204.0,12664.0,-1659.0,409.0,-6396.0,17689.67246729006
12.658618927001953,-2832.0,12868.0,13164.0,-1367.0,2032.0,-6144.0,18625.15889865104
12.682475090026855,-3400.0,11384.0,14296.0,189.0,5155.0,-5623.0,18588.46610132208
12.706103324890137,-5160.0,11436.0,9660.0,1971.0,1982.0,-3472.0,15834.244408875342
12.73010802268982,-3736.0,12148.0,9676.0,-903.0,425.0,-1156.0,15973.621255056725
12.754539251327515,-2100.0,12196.0,11832.0,-1981.0,2337.0,-287.0,17121.584038867433
12.779598712921143,-1020.0,12472.0,13312.0,-959.0,1758.0,-756.0,18270.208756333355
12.804312467575073,-1212.0,12728.0,11960.0,546.0,1496.0,-1235.0,17507.499193202893
12.82864236831665,-2392.0,12604.0,9856.0,939.0,153.0,-1531.0,16177.861910648144
12.852920055389404,-2360.0,12028.0,8972.0,10.0,-1059.0,-309.0,15190.100987156076
12.877223491668701,-1456.0,12620.0,9812.0,-881.0,-849.0,329.0,16051.781209572973
12.901830196380615,-1668.0,12532.0,9388.0,-826.0,-367.0,292.0,15746.993109797184
12.926318168640137,-2104.0,12696.0,8896.0,-1775.0,-320.0,813.0,15644.61722126815
12.951057434082031,-2168.0,12516.0,9476.0,-2383.0,-43.0,1135.0,15847.556783302593
12.975950479507446,-2148.0,12048.0,9036.0,-2061.0,-409.0,2023.0,15212.412826373073
13.000053644180298,-868.0,11740.0,8816.0,-2769.0,-1627.0,2751.0,14707.239033890759
13.024290800094604,220.0,12096.0,10344.0,-3788.0,-135.0,2643.0,15917.284693062444
13.048165321350098,-120.0,12216.0,11496.0,-3285.0,190.0,1564.0,16775.072935757984
13.073956727981567,-2044.0,12120.0,9836.0,-2776.0,-952.0,992.0,15742.275312037964
13.0980806350708,-3836.0,10828.0,7640.0,-4136.0,-4082.0,2213.0,13796.016816458292
13.122878789901733,-4380.0,9776.0,7292.0,-6930.0,-8696.0,5299.0,12958.697465409092
13.147442817687988,-2988.0,9296.0,9900.0,-9545.0,-11513.0,9492.0,13905.170261453111
13.1717209815979,-264.0,9360.0,12140.0,-9485.0,-10710.0,12275.0,15331.630572121154
13.195996046066284,1336.0,9536.0,11972.0,-8143.0,-12859.0,12283.0,15363.88544607125
13.219879627227783,2380.0,9276.0,12520.0,-8116.0,-11112.0,12867.0,15762.581514460124
13.243892908096313,2708.0,9448.0,11968.0,-8346.0,-8645.0,13408.0,15486.477714444947
13.267841339111328,2752.0,7844.0,10688.0,-8782.0,-8433.0,14348.0,13540.132347949926
13.291549682617188,4248.0,8160.0,11220.0,-10244.0,-9376.0,15825.0,14509.290265205946
13.315394639968872,7152.0,8440.0,14580.0,-10979.0,-6304.0,15850.0,18301.942629130932
13.338940620422363,8248.0,8372.0,15444.0,-7966.0,-6991.0,14092.0,19407.13848046641
13.363273620605469,7752.0,7272.0,12272.0,-5031.0,-7300.0,12095.0,16235.069202193134
13.386814594268799,6520.0,6072.0,9836.0,-7081.0,-6597.0,12318.0,13271.265199671056
13.411399364471436,8208.0,5728.0,12820.0,-9167.0,-5086.0,14072.0,16264.490400870234
13.435339450836182,10616.0,5960.0,14384.0,-7210.0,-6169.0,13409.0,18844.641466475292
13.459234476089478,11800.0,5368.0,12152.0,-5889.0,-6743.0,11567.0,17768.695168751135
13.483520984649658,11852.0,5372.0,10452.0,-6847.0,-7141.0,9478.0,16690.494060991725
13.507877588272095,10588.0,4352.0,10752.0,-8378.0,-8421.0,7804.0,15705.131390727045
13.531644344329834,10108.0,3116.0,12100.0,-8734.0,-9194.0,8344.0,16071.438019044843
13.555421829223633,10120.0,2724.0,12416.0,-8165.0,-9566.0,9252.0,16247.819299832208
13.579073667526245,11728.0,924.0,13872.0,-6823.0,-8025.0,10917.0,18188.791713580096
13.602353572845459,13220.0,2548.0,12784.0,-6670.0,-4594.0,10662.0,18565.86545249103
13.626144170761108,14416.0,2628.0,13592.0,-6576.0,-4620.0,8260.0,19986.74320643561
13.649547100067139,12448.0,1744.0,13912.0,-5436.0,-3994.0,6250.0,18749.34622860221
13.673323154449463,11452.0,588.0,13736.0,-4246.0,-2179.0,7123.0,17893.34356681277
13.696866750717163,12760.0,860.0,13308.0,-3040.0,-2444.0,8044.0,18456.97873434328
13.721305847167969,14032.0,888.0,12992.0,-2404.0,-1459.0,7107.0,19143.605512024114
13.745071411132812,13836.0,88.0,12532.0,-1740.0,-1196.0,5710.0,18667.985001065328
13.768432140350342,13572.0,-340.0,11580.0,-1289.0,-522.0,5408.0,17844.079802556364
13.792818069458008,13728.0,-400.0,10352.0,-1309.0,-1532.0,4627.0,17198.310614708644
13.817415237426758,12908.0,-728.0,9768.0,-2270.0,-1553.0,3750.0,16203.711673564178
13.841669797897339,12888.0,-1048.0,9984.0,-3517.0,-1379.0,3987.0,16336.434861988708
13.86550784111023,13600.0,-944.0,10976.0,-3944.0,-1848.0,3998.0,17502.1059304302
13.889782428741455,14472.0,-1120.0,11532.0,-3583.0,-1564.0,2831.0,18538.613971923576
13.914279222488403,12840.0,-1372.0,11232.0,-3503.0,-1503.0,1671.0,17114.491169766046
13.938473463058472,12072.0,-2120.0,11400.0,-3443.0,-1461.0,2158.0,16738.80473630062
13.96219801902771,12432.0,-2164.0,11888.0,-3128.0,-1900.0,2872.0,17336.72587312841
13.987062454223633,13676.0,-2316.0,12600.0,-2486.0,-1155.0,3120.0,18739.179064195956
14.011410474777222,13124.0,-1888.0,11880.0,-1654.0,-1091.0,2428.0,17802.761583529675
14.036712169647217,12692.0,-2280.0,11476.0,-1390.0,-1349.0,2262.0,17262.2084334537
14.060999393463135,12188.0,-2352.0,10912.0,-1320.0,-1948.0,2432.0,16527.280236021896
14.084573984146118,11608.0,-2496.0,10736.0,-1560.0,-2132.0,2654.0,16007.416281211656
14.10752248764038,11648.0,-2524.0,10660.0,-1832.0,-1525.0,3489.0,15990.061913576195
14.130574464797974,11640.0,-2620.0,10336.0,-2262.0,-1116.0,3931.0,15785.654753604616
14.154131174087524,11276.0,-3092.0,10500.0,-2386.0,-1358.0,4579.0,15714.917753523243
14.176565408706665,11472.0,-3584.0,10852.0,-2178.0,-1787.0,5519.0,16193.138793946033
14.200010538101196,13148.0,-3932.0,10876.0,-1856.0,-1167.0,6278.0,17510.50838782244
14.22258973121643,13260.0,-3556.0,9916.0,-2081.0,-883.0,5694.0,16935.16436294611
14.244743585586548,12048.0,-3960.0,9264.0,-2554.0,-1857.0,5099.0,15705.336672609092
14.267837524414062,11896.0,-5008.0,10080.0,-3083.0,-2007.0,5869.0,16376.851956343746
14.2904531955719,12884.0,-4944.0,11068.0,-2872.0,-1720.0,6842.0,17690.14460087876
14.3125,13044.0,-4920.0,11140.0,-1945.0,-232.0,6502.0,17845.221657351303
14.335113763809204,12952.0,-5264.0,10096.0,-1703.0,-815.0,6087.0,17245.09251932271
14.35758662223816,12776.0,-5264.0,10204.0,-2009.0,-2092.0,5893.0,17177.23749617499
14.379929304122925,13376.0,-5652.0,11512.0,-1800.0,-600.0,5857.0,18530.748069087767
14.402737617492676,12464.0,-5536.0,10896.0,-668.0,293.0,5256.0,17456.27130861571
14.4249107837677,11924.0,-6052.0,10056.0,-216.0,1708.0,5332.0,16731.157043073857
14.447989463806152,11388.0,-5964.0,8756.0,-714.0,591.0,5673.0,15553.886202489717
14.470978021621704,11212.0,-5700.0,8960.0,-2073.0,-1787.0,5814.0,15442.81528737555
14.493396759033203,10976.0,-7080.0,10916.0,-2218.0,-1274.0,5896.0,17022.28045826998
14.515498638153076,12556.0,-7608.0,10888.0,-1121.0,490.0,7538.0,18277.946930659364
14.537643432617188,13100.0,-6512.0,10008.0,-619.0,-152.0,6628.0,17725.016445690537
14.560286045074463,11392.0,-6652.0,9936.0,-926.0,-729.0,4846.0,16515.1707227022
14.583387851715088,9272.0,-8216.0,10644.0,-1083.0,617.0,5174.0,16333.014908460716
14.606205940246582,10248.0,-8804.0,9836.0,-373.0,936.0,7979.0,16711.637143021027
14.629564046859741,13252.0,-7912.0,9120.0,-905.0,-514.0,8399.0,17927.34358459167
14.653180599212646,13192.0,-7696.0,9472.0,-1514.0,-561.0,5955.0,17971.534825940715
14.676268339157104,11740.0,-8912.0,9696.0,-1662.0,40.0,5070.0,17642.66873236586
14.699594259262085,11864.0,-9056.0,10376.0,-1334.0,-994.0,5776.0,18177.65133343689
14.722097873687744,11836.0,-9228.0,11332.0,-225.0,-392.0,5295.0,18805.87950615445
14.74357271194458,9824.0,-9068.0,11156.0,811.0,-101.0,4879.0,17412.522390509654
14.764649629592896,9232.0,-9672.0,11032.0,1350.0,1601.0,5439.0,17334.429093569826
14.787866353988647,10060.0,-9204.0,11144.0,1848.0,-160.0,6332.0,17609.825439225682
14.81020450592041,11356.0,-9056.0,11960.0,2765.0,-1728.0,5552.0,18815.192584717275
14.832489967346191,10852.0,-9228.0,11120.0,3749.0,-1076.0,4469.0,18071.42185883557
14.854850053787231,10472.0,-8836.0,9968.0,3336.0,-1599.0,3505.0,16943.987252119852
14.876960515975952,10600.0,-9616.0,10196.0,2566.0,-3267.0,3111.0,17572.304117559543
14.899492263793945,10656.0,-9068.0,12008.0,2855.0,-3250.0,2454.0,18438.303175726338
14.921873331069946,9380.0,-8916.0,13296.0,4194.0,-3033.0,1682.0,18554.32758145657
14.943820714950562,9092.0,-9556.0,13680.0,6012.0,-3975.0,2080.0,19003.262877727077
14.965731143951416,8992.0,-9268.0,14760.0,8204.0,-5219.0,3134.0,19611.463178457645
14.98781156539917,9328.0,-9548.0,14424.0,11392.0,-4915.0,3544.0,19652.67574657456
15.009721994400024,9860.0,-9636.0,12352.0,13450.0,-6646.0,4272.0,18510.645585716346
15.03204345703125,10148.0,-8788.0,10812.0,13616.0,-6360.0,4246.0,17236.88463731193
15.053746700286865,9896.0,-8248.0,10300.0,12288.0,-6432.0,3549.0,16493.947981002002
15.075273275375366,10056.0,-7060.0,11268.0,11493.0,-7676.0,3560.0,16671.3694698426
15.096760511398315,10144.0,-7624.0,12300.0,11586.0,-6183.0,2678.0,17672.46762622583
15.118715524673462,9568.0,-8312.0,11220.0,12681.0,-5387.0,2883.0,16927.03069058481
15.140987634658813,9552.0,-8184.0,10108.0,12954.0,-6769.0,3979.0,16136.611292337682
15.163306713104248,10072.0,-7056.0,10148.0,12131.0,-7461.0,4763.0,15944.096838642194
15.184888124465942,10572.0,-6200.0,10224.0,10465.0,-6035.0,4135.0,15960.493726699058
15.206403493881226,10704.0,-6584.0,11212.0,10223.0,-6580.0,4044.0,16841.425592864754
15.228769063949585,11888.0,-6672.0,12288.0,11646.0,-7311.0,4121.0,18353.067100623808
15.250943422317505,12080.0,-5920.0,11580.0,12022.0,-6592.0,3426.0,17750.188731390997
15.272525310516357,11736.0,-5260.0,11544.0,11455.0,-6165.0,2629.0,17281.93368810331
15.29377007484436,10828.0,-5472.0,12252.0,11798.0,-6183.0,2469.0,17242.385913788148
15.315531253814697,11196.0,-5596.0,12956.0,14139.0,-5767.0,3446.0,18014.537684881063
15.337537050247192,10696.0,-4308.0,11460.0,15269.0,-5077.0,4042.0,16257.148581470245
15.359580039978027,10840.0,-3536.0,11512.0,14477.0,-6833.0,4494.0,16202.933067812137
15.381032466888428,12084.0,-3920.0,11600.0,13130.0,-4338.0,5236.0,17203.18156621036
15.402426719665527,12196.0,-3868.0,10852.0,13583.0,-3165.0,5258.0,16777.060052345285
15.42416763305664,13012.0,-3440.0,9104.0,13994.0,-4473.0,5045.0,16248.955658749272
15.446606636047363,12856.0,-3004.0,6592.0,11770.0,-4202.0,4080.0,14756.53129973301
15.468567848205566,12244.0,-1884.0,6308.0,7167.0,-4604.0,3363.0,13901.649398542606
15.490531921386719,13004.0,-2560.0,9484.0,4103.0,-4326.0,3161.0,16297.357822665612
15.512258529663086,13876.0,-3632.0,11488.0,5460.0,-2439.0,3041.0,18376.858926378034
15.534273147583008,12804.0,-2632.0,9564.0,6677.0,-2547.0,2611.0,16196.911310493739
15.55675458908081,12928.0,-1648.0,8916.0,5382.0,-3661.0,2301.0,15790.634692753803
15.578316926956177,12632.0,-1796.0,10412.0,4086.0,-2213.0,2130.0,16468.23560676735
15.600368022918701,13376.0,-3004.0,10776.0,5069.0,-1136.0,2521.0,17437.41861629754
15.622074842453003,13396.0,-2672.0,8528.0,5598.0,-2420.0,2453.0,16103.390450461045
15.644216775894165,13196.0,-1504.0,8116.0,3084.0,-3234.0,2328.0,15564.892803999648
15.666110038757324,13724.0,-2008.0,10648.0,2286.0,-2232.0,1908.0,17485.99851309613
15.68756628036499,13136.0,-2676.0,10492.0,4106.0,-1392.0,1802.0,17023.44078028881
15.708875894546509,12756.0,-1796.0,8920.0,4039.0,-2290.0,2750.0,15668.680608143111
15.7303147315979,13804.0,-1260.0,10032.0,2296.0,-2804.0,2930.0,17110.78724080222
15.75226616859436,15012.0,-1344.0,12692.0,2977.0,-2163.0,2127.0,19704.14535066162
15.77463960647583,14764.0,-1812.0,11904.0,5749.0,-1039.0,1120.0,19051.62082343652
15.797354221343994,13136.0,-1604.0,7944.0,5848.0,-1089.0,1135.0,15434.845253516472
15.819175481796265,12588.0,-960.0,6916.0,3428.0,-1333.0,1626.0,14394.804618333657
15.841251611709595,13320.0,-1104.0,7328.0,1132.0,-1164.0,2218.0,15242.729414379828
15.86461877822876,13768.0,-428.0,8328.0,-458.0,-1502.0,1810.0,16096.477627108361
15.887786149978638,14420.0,-312.0,11928.0,-877.0,-2060.0,1296.0,18716.594989473913
15.909408807754517,15036.0,-1744.0,14108.0,2146.0,-1163.0,648.0,20691.99110767255
15.930777072906494,13900.0,-1568.0,11088.0,4955.0,-792.0,469.0,17849.71618821991
15.952093362808228,12940.0,-976.0,8344.0,4197.0,-1906.0,916.0,15427.8485862417
15.972641229629517,12824.0,-1316.0,8320.0,2580.0,-1774.0,1503.0,15343.051586956228
15.993610620498657,14868.0,-1456.0,9736.0,2326.0,-1634.0,1788.0,17831.6307723102
16.01507043838501,14520.0,-1160.0,9156.0,2931.0,-1409.0,929.0,17204.892792458777
16.036295890808105,13584.0,-912.0,9016.0,2480.0,-1500.0,501.0,16329.269916318977
16.05770778656006,14164.0,-1088.0,10064.0,2262.0,-1933.0,1031.0,17409.38643376038
16.07880997657776,15260.0,-964.0,11136.0,3282.0,-1909.0,666.0,18915.797419088627
16.099897384643555,14196.0,-788.0,10316.0,4506.0,-1392.0,88.0,17566.0814070754
16.12079381942749,13376.0,-1124.0,8600.0,4486.0,-1626.0,510.0,15941.792621910497
16.141932010650635,14168.0,-732.0,8520.0,3917.0,-1767.0,982.0,16548.669070351247
16.16267490386963,14804.0,-640.0,8716.0,3365.0,-2343.0,774.0,17191.180064207343
16.183977127075195,15052.0,-508.0,9736.0,3265.0,-2086.0,237.0,17933.5011640226
16.206562519073486,15028.0,-244.0,9788.0,3735.0,-2169.0,-210.0,17936.144067218014
16.22786855697632,13976.0,12.0,9560.0,4430.0,-2042.0,-951.0,16932.876896735535
16.24851942062378,13900.0,-328.0,9456.0,4503.0,-2418.0,25.0,16814.6816800081
16.269522428512573,15040.0,-240.0,9996.0,5359.0,-1840.0,73.0,18060.432331480883
16.290894746780396,14476.0,-164.0,7164.0,5901.0,-1256.0,77.0,16152.534414140711
16.31217360496521,13944.0,600.0,6480.0,4008.0,-2341.0,189.0,15387.837274938931
16.33345603942871,14660.0,588.0,8164.0,2437.0,-2544.0,518.0,16790.242404444314
16.354902267456055,15580.0,948.0,10400.0,2653.0,-3194.0,403.0,18756.201747688683
16.375593662261963,15180.0,692.0,11556.0,5132.0,-2931.0,-647.0,19090.636448269608
16.396358013153076,14084.0,-520.0,8816.0,7514.0,-2489.0,-150.0,16623.817612088988
16.417155504226685,14616.0,16.0,5924.0,7097.0,-3208.0,962.0,15770.906378518643
16.438570261001587,14716.0,532.0,4140.0,5257.0,-2624.0,508.0,15296.512020718972
16.459323167800903,13264.0,1180.0,3756.0,1508.0,-2060.0,344.0,13835.954321982997
16.48064661026001,15208.0,308.0,7692.0,-340.0,-2013.0,1140.0,17045.380371232553
16.50160837173462,16808.0,1272.0,10592.0,1574.0,-2428.0,593.0,19907.719909623
16.52308177947998,16380.0,1140.0,10320.0,4095.0,-2760.0,-582.0,19393.462816114094
16.54472827911377,14428.0,1628.0,9112.0,5137.0,-3938.0,-616.0,17141.94014690286
16.565749406814575,14544.0,1492.0,9856.0,6260.0,-3757.0,510.0,17632.20734905304
16.58739471435547,15044.0,668.0,7112.0,8286.0,-2615.0,990.0,16653.789478674214
16.60865831375122,16036.0,1264.0,3680.0,7057.0,-2799.0,1368.0,16501.31485670157
16.629819631576538,16196.0,1800.0,3028.0,3885.0,-3481.0,728.0,16574.655350866273
16.652199029922485,16880.0,1772.0,5784.0,1680.0,-4593.0,114.0,17931.23085568863
16.673980236053467,17752.0,1720.0,10068.0,1508.0,-6612.0,329.0,20480.63788069112
16.695351123809814,19260.0,1488.0,14388.0,5673.0,-7296.0,-602.0,24086.848859906935
16.718065977096558,17920.0,308.0,11384.0,12005.0,-6553.0,-2609.0,21232.44498403328
16.740414142608643,16404.0,396.0,5692.0,13761.0,-6384.0,-3367.0,17367.984799624854
16.762762784957886,14720.0,1660.0,1048.0,12606.0,-6213.0,-4132.0,14850.330097341272
16.78521752357483,14300.0,1188.0,-2460.0,8591.0,-6378.0,-3331.0,14558.603779209048
16.808076858520508,17644.0,1996.0,-2292.0,3471.0,-9140.0,-1571.0,17903.854780465575
16.830546379089355,18748.0,2900.0,-336.0,626.0,-7287.0,-4276.0,18973.940023094834
16.85714364051819,16088.0,3740.0,-172.0,-1327.0,-5999.0,-6440.0,16517.897202731347
16.880412101745605,15352.0,3856.0,1516.0,-3151.0,-7034.0,-5464.0,15901.28598573084
16.90227222442627,16720.0,3860.0,2856.0,-1967.0,-7646.0,-4795.0,17395.825246305507
16.92316198348999,16176.0,4144.0,1552.0,-1562.0,-7956.0,-4206.0,16770.343347707585
16.94446110725403,17548.0,4340.0,2384.0,-1701.0,-7972.0,-3983.0,18233.248750565544
16.968242168426514,16216.0,5320.0,3120.0,-65.0,-7178.0,-5443.0,17349.220616500326
16.990197896957397,15692.0,4512.0,1548.0,1087.0,-6576.0,-5006.0,16401.015578311
17.01142716407776,16988.0,4840.0,972.0,825.0,-7295.0,-4198.0,17690.746959922297
17.03331232070923,17872.0,4988.0,812.0,1508.0,-7979.0,-4754.0,18572.77232940737
17.054938316345215,17116.0,5068.0,-388.0,1664.0,-8091.0,-5988.0,17854.764742219373
17.076807260513306,15292.0,6344.0,-1512.0,206.0,-8457.0,-6540.0,16624.612596990042
17.098950624465942,13816.0,6004.0,156.0,-947.0,-9485.0,-5699.0,15064.999435778283
17.1208758354187,13824.0,5844.0,1868.0,726.0,-9275.0,-4487.0,15124.309438780998
17.142569303512573,15004.0,5352.0,-512.0,3147.0,-7813.0,-2809.0,15938.195129938647
17.16454577445984,17144.0,7160.0,-3048.0,2478.0,-9408.0,-2899.0,18827.4437988804
17.18679642677307,16888.0,7488.0,-2200.0,569.0,-8432.0,-4763.0,18604.157814854185
17.20829963684082,15000.0,6644.0,-772.0,1244.0,-6551.0,-5591.0,16423.724303579867
17.229427337646484,15192.0,5824.0,-3004.0,3099.0,-7516.0,-4345.0,16545.085554327
17.250545024871826,16808.0,6572.0,-5732.0,2978.0,-9473.0,-4236.0,18935.571604786586
17.2725350856781,16428.0,7960.0,-5524.0,60.0,-8870.0,-6370.0,19072.37164067437
17.294206619262695,13124.0,6904.0,-3468.0,-552.0,-8177.0,-7639.0,15229.301231507636
17.31646180152893,12244.0,6492.0,-3804.0,1104.0,-9469.0,-5635.0,14371.22179913733
17.33812665939331,14728.0,6708.0,-6036.0,1379.0,-10083.0,-4030.0,17272.653067783187
17.359321117401123,16288.0,7972.0,-6896.0,-290.0,-10682.0,-5339.0,19401.19955054326
17.38100814819336,14328.0,8728.0,-4896.0,-775.0,-10867.0,-8530.0,17476.8528059259
17.40230965614319,11868.0,7284.0,-4296.0,133.0,-9087.0,-8373.0,14572.635176933512
17.424294471740723,12044.0,7088.0,-6712.0,1540.0,-9353.0,-5873.0,15503.181092924124
17.446359157562256,13052.0,9236.0,-8844.0,210.0,-11244.0,-6067.0,18272.239490549593
17.467592239379883,11016.0,9164.0,-7812.0,-1843.0,-9657.0,-8126.0,16320.493129804627
17.489760637283325,9148.0,8516.0,-5388.0,-2210.0,-8677.0,-7110.0,13610.242613561302
17.512404203414917,9152.0,8804.0,-5340.0,960.0,-8399.0,-5617.0,13776.252030214895
17.53435778617859,9796.0,9524.0,-8784.0,2178.0,-6796.0,-4775.0,16242.747550830185
17.555416107177734,9840.0,10804.0,-11296.0,-14.0,-6543.0,-5033.0,18470.29052289108
17.577581644058228,9460.0,10128.0,-9520.0,-2144.0,-6920.0,-4779.0,16813.636846322093
17.599324226379395,8916.0,10428.0,-8080.0,-1071.0,-7114.0,-4760.0,15922.457096817689
17.62145185470581,7836.0,10856.0,-8448.0,-566.0,-4645.0,-4948.0,15831.119227647803
17.64428997039795,6660.0,10800.0,-8600.0,-310.0,-3100.0,-3977.0,15328.261480024406
17.666146993637085,8600.0,10396.0,-9028.0,692.0,-4854.0,-1763.0,16233.964395673658
17.688007354736328,10056.0,10848.0,-11188.0,1067.0,-5892.0,-2473.0,18546.52484968545
17.708611726760864,10904.0,10580.0,-11864.0,-952.0,-6001.0,-3617.0,19276.62086570154
17.72999405860901,10084.0,10996.0,-10320.0,-2315.0,-7498.0,-5549.0,18141.154097796534
17.75137710571289,8224.0,10340.0,-8748.0,-1769.0,-9114.0,-5930.0,15845.418265227334
17.77210259437561,7488.0,10500.0,-8816.0,-1027.0,-7816.0,-5921.0,15621.843681204853
17.79362916946411,6392.0,9988.0,-11000.0,-631.0,-5731.0,-5868.0,16174.603797311389
17.81531023979187,4656.0,11708.0,-11708.0,-3162.0,-7556.0,-4990.0,17199.792556888588
17.842793703079224,5652.0,10152.0,-9768.0,-3067.0,-10695.0,-2968.0,15179.658494182271
17.86495041847229,6932.0,11508.0,-9944.0,-2286.0,-9560.0,-2983.0,16714.35981424356
17.886719226837158,5244.0,11944.0,-9852.0,-2133.0,-8682.0,-3546.0,16346.882760942528
17.90859341621399,5472.0,11824.0,-9684.0,-1653.0,-6979.0,-4079.0,16233.595288783074
17.93006944656372,5592.0,11600.0,-11164.0,-468.0,-8683.0,-4252.0,17043.0443289924
17.951395750045776,5660.0,11656.0,-13004.0,-1526.0,-8204.0,-5901.0,18357.612916716596
17.97260594367981,3052.0,12108.0,-12800.0,-3875.0,-8366.0,-6998.0,17881.788724845173
17.9937481880188,848.0,11936.0,-10380.0,-4870.0,-9170.0,-6373.0,15840.820685810442
18.01570701599121,468.0,11192.0,-9292.0,-3600.0,-9481.0,-3719.0,14554.076817167072
18.036690950393677,2140.0,12052.0,-10436.0,-3119.0,-5919.0,-2361.0,16085.409537838941
18.060396671295166,3316.0,12880.0,-11464.0,-3269.0,-4278.0,-3529.0,17558.859644065727
18.082242012023926,2292.0,13148.0,-11172.0,-4159.0,-5611.0,-4850.0,17405.078339381296
18.103416919708252,788.0,12632.0,-10560.0,-4669.0,-5920.0,-4908.0,16483.384603897342
18.12556481361389,716.0,12652.0,-10000.0,-3982.0,-7963.0,-4154.0,16142.6689243136
18.147045373916626,1080.0,12316.0,-9968.0,-4448.0,-5263.0,-3629.0,15881.161166614991
18.16871929168701,600.0,13288.0,-9700.0,-4511.0,-4591.0,-4143.0,16462.713749561462
18.190390825271606,76.0,12716.0,-9028.0,-4431.0,-4417.0,-4046.0,15595.102308096602
18.21261191368103,-184.0,13124.0,-9556.0,-4004.0,-3489.0,-3261.0,16235.46636225766
18.233864068984985,-412.0,13612.0,-10904.0,-4633.0,-1663.0,-3660.0,17445.730251267785
18.2552707195282,-1508.0,13660.0,-11308.0,-6382.0,-1758.0,-3884.0,17797.205623355596
18.276726245880127,-1996.0,13472.0,-10380.0,-7706.0,-3993.0,-3037.0,17123.76126906703
18.29852271080017,-2368.0,13636.0,-10288.0,-8796.0,-5545.0,-2053.0,17245.024325874405
18.32047939300537,-1232.0,13996.0,-8784.0,-10126.0,-5881.0,-1408.0,16569.98780928942
18.342590808868408,-660.0,13992.0,-6620.0,-10150.0,-6096.0,-1753.0,15493.097301701813
18.364245653152466,-700.0,13924.0,-5152.0,-8392.0,-5809.0,-2372.0,14863.07101510317
18.38584065437317,320.0,13912.0,-4676.0,-6626.0,-6756.0,-2185.0,14680.296999720407
18.40796208381653,1100.0,14480.0,-6192.0,-5042.0,-7490.0,-3508.0,15786.743299363552
18.429493188858032,108.0,15436.0,-8632.0,-6443.0,-5253.0,-5822.0,17685.960081375284
18.450874090194702,-2020.0,14356.0,-9316.0,-9773.0,-5315.0,-6880.0,17232.614195182345
18.472907304763794,-2124.0,13520.0,-7556.0,-11962.0,-11133.0,-5888.0,15633.1350662623
18.494903326034546,-2872.0,13396.0,-6172.0,-11978.0,-12978.0,-6390.0,15026.469445614961
18.51685333251953,-4580.0,14864.0,-4648.0,-13079.0,-8079.0,-6669.0,16233.262149056794
18.538596868515015,-6432.0,14768.0,-2596.0,-13053.0,-7120.0,-6386.0,16315.748956146635
18.5606951713562,-6380.0,13972.0,-992.0,-11893.0,-11368.0,-3673.0,15391.726608798637
18.581977128982544,-5948.0,14412.0,200.0,-10283.0,-10419.0,-2062.0,15592.448428646478
18.60314631462097,-6072.0,15404.0,548.0,-8546.0,-6212.0,-1621.0,16566.61413807903
18.624138832092285,-6092.0,15472.0,428.0,-7305.0,-3662.0,-1618.0,16633.65359745116
18.645124912261963,-5920.0,14504.0,-448.0,-6064.0,-4639.0,-1441.0,15672.049004517565
18.66585087776184,-5812.0,15776.0,-2296.0,-6321.0,-5717.0,-1045.0,16968.592634629425
18.686983108520508,-7148.0,15716.0,-3000.0,-8916.0,-5155.0,-883.0,17523.885413914348
18.708721160888672,-7176.0,15200.0,-1436.0,-10949.0,-4145.0,80.0,16870.005097805988
18.73004937171936,-5792.0,13712.0,796.0,-11307.0,-6173.0,1777.0,14906.368571855453
18.750839948654175,-4680.0,14652.0,3060.0,-10277.0,-6479.0,2151.0,15682.700787810752
18.771716356277466,-4312.0,15512.0,3744.0,-8455.0,-3919.0,1514.0,16529.76176476842
18.792571544647217,-6012.0,15804.0,3312.0,-7703.0,-1766.0,715.0,17230.20324894631
18.814193964004517,-6016.0,13176.0,2652.0,-7296.0,-3893.0,2657.0,14725.227875995672
18.83564782142639,-5612.0,14608.0,732.0,-7836.0,-7818.0,4198.0,15666.015192128469
18.857606410980225,-4004.0,15572.0,1704.0,-9947.0,-7553.0,4144.0,16168.57495266667
18.87922215461731,-3056.0,14496.0,3168.0,-12533.0,-2471.0,3212.0,15149.566858494667
18.900809288024902,-3180.0,14360.0,5192.0,-13773.0,-2273.0,2875.0,15597.399270391203
18.92215394973755,-3852.0,14440.0,6976.0,-12492.0,-8221.0,2774.0,16492.909991872264
18.94372868537903,-4232.0,14852.0,9296.0,-9783.0,-11599.0,3128.0,18025.18637906416
18.965393781661987,-5384.0,14440.0,10476.0,-5374.0,-10007.0,3987.0,18634.581615909705
18.987772703170776,-7260.0,14412.0,9488.0,-886.0,-8299.0,5650.0,18719.922222060646
19.009425163269043,-7740.0,13368.0,6452.0,369.0,-6147.0,9311.0,16740.35029502071
19.03085470199585,-5712.0,13128.0,4880.0,-1319.0,-6380.0,13048.0,15125.664547384356
19.05246353149414,-3812.0,14088.0,5684.0,-2688.0,-8159.0,15194.0,15662.405434670627
19.073944330215454,-3144.0,14332.0,6288.0,-2968.0,-8119.0,15885.0,15963.392621870827
19.096097469329834,-3484.0,13192.0,5796.0,-3306.0,-6715.0,17341.0,14824.329192243405
19.118295431137085,-716.0,10696.0,6804.0,-4627.0,-4996.0,20353.0,12696.908600127828
19.140703916549683,3720.0,10956.0,8260.0,-4320.0,-2686.0,22826.0,14216.18570503354
19.162847995758057,5304.0,12444.0,7028.0,-3360.0,-3326.0,22548.0,15243.960640201089
19.18446636199951,5480.0,13824.0,4340.0,-3796.0,-4764.0,20098.0,15490.93205717461
19.20642375946045,4316.0,12448.0,2956.0,-6326.0,-2168.0,18311.0,13502.536650570513
19.22859835624695,4776.0,9956.0,3384.0,-9002.0,-7.0,18880.0,11549.18040382087
19.25114417076111,6004.0,8748.0,4492.0,-10665.0,1848.0,20568.0,11521.874153105475
19.273698091506958,6964.0,9176.0,5248.0,-11723.0,-285.0,21659.0,12658.506072992974
19.29665493965149,9436.0,8480.0,6976.0,-12751.0,-1386.0,22674.0,14478.02030665795
19.319235801696777,12564.0,7760.0,8504.0,-13376.0,1505.0,22412.0,17040.824862664365
19.341537475585938,13768.0,7660.0,9112.0,-13382.0,5683.0,19688.0,18200.60350647747
19.36419105529785,12736.0,7848.0,9792.0,-12954.0,6534.0,15522.0,17879.599100650998
19.386677742004395,10468.0,6600.0,10404.0,-12096.0,4736.0,13374.0,16167.320124250647
19.410305738449097,11472.0,5132.0,11820.0,-11953.0,3994.0,14267.0,17252.72755247703
19.43294382095337,12720.0,4724.0,12476.0,-10887.0,5052.0,13292.0,18432.71960400852
19.455310821533203,11732.0,4580.0,12144.0,-10422.0,5955.0,10980.0,17495.512567512847
19.478872060775757,9852.0,3456.0,11664.0,-10859.0,5566.0,9918.0,15654.224222234712
19.501208782196045,7928.0,1724.0,11628.0,-12132.0,4922.0,10471.0,14178.70741640436
19.524258375167847,6944.0,640.0,11704.0,-12577.0,1704.0,12327.0,13623.962419208297
19.547439098358154,7656.0,-356.0,11392.0,-12847.0,-3995.0,14966.0,13730.212525667619
19.569701671600342,10492.0,-1796.0,12152.0,-13886.0,-5549.0,17218.0,16154.837789343475
19.591676473617554,12680.0,-2364.0,13088.0,-14858.0,-3178.0,17978.0,18375.707877521345
19.613861083984375,14180.0,-3360.0,14196.0,-14656.0,-2560.0,17937.0,20344.247737382673
19.635741710662842,15356.0,-4364.0,15268.0,-12878.0,-2591.0,16891.0,22089.885830397587
19.65758466720581,16664.0,-3896.0,15624.0,-10135.0,-2725.0,14386.0,23172.766084349965
19.680293083190918,17048.0,-3720.0,14976.0,-7509.0,-3246.0,10197.0,22994.635896225886
19.703377723693848,16188.0,-4512.0,14596.0,-4815.0,-3919.0,5800.0,22258.76690205457
19.725730419158936,14132.0,-4304.0,13252.0,-2508.0,-1711.0,3128.0,19845.738686176435
19.748013973236084,11940.0,-4900.0,11436.0,-1942.0,-1042.0,2323.0,17244.004639294202
19.769683837890625,10464.0,-4840.0,10564.0,-2315.0,-1991.0,2412.0,15637.103056512738
19.791649341583252,9812.0,-5504.0,10448.0,-3217.0,-1275.0,3170.0,15353.503313576352
19.81461763381958,9920.0,-6228.0,10692.0,-3800.0,97.0,4512.0,15859.169209009657
19.836941242218018,10440.0,-6284.0,10988.0,-4140.0,193.0,5771.0,16407.876157504357
19.860223054885864,11080.0,-6088.0,11256.0,-4391.0,24.0,6372.0,16927.128521990962
19.88360047340393,11560.0,-6180.0,11704.0,-4524.0,-610.0,6241.0,17572.97971318467
19.9069721698761,11944.0,-6616.0,12232.0,-3878.0,-889.0,5910.0,18331.732487683756
19.930238962173462,12100.0,-7120.0,12208.0,-2794.0,-1504.0,5633.0,18604.829050544915
19.953081846237183,12316.0,-7168.0,11792.0,-2101.0,-1760.0,5210.0,18496.36029060853
19.975806713104248,12480.0,-7124.0,11428.0,-2080.0,-1645.0,4696.0,18360.30936558532
19.998074054718018,12828.0,-6884.0,11436.0,-2240.0,-120.0,3986.0,18512.94509255618
20.02110528945923,12836.0,-6952.0,11776.0,-1930.0,-77.0,2943.0,18755.462564277106
20.045021533966064,12568.0,-7096.0,11816.0,-899.0,-596.0,1780.0,18652.766443613666
20.067272424697876,11500.0,-6836.0,11308.0,468.0,-1513.0,712.0,17517.184705311523
20.08986759185791,10816.0,-6856.0,10400.0,678.0,-1913.0,285.0,16496.987361333584
20.112205743789673,10132.0,-6864.0,10064.0,196.0,-1077.0,335.0,15844.747268416748
20.134724140167236,9352.0,-7116.0,9700.0,-86.0,-1139.0,596.0,15237.695363800918
20.156962633132935,8868.0,-7264.0,9580.0,-365.0,-3453.0,1500.0,14939.327963466094
20.179991960525513,9276.0,-7888.0,9600.0,-1423.0,-3468.0,2224.0,15505.635104696616
20.202322721481323,9412.0,-7708.0,9920.0,-2617.0,-2288.0,3271.0,15697.305756084386
20.224958896636963,9812.0,-8024.0,10232.0,-3380.0,-318.0,4205.0,16289.682133178658
20.24834179878235,10068.0,-8180.0,10548.0,-3745.0,556.0,5091.0,16719.369844584453
20.270813703536987,10268.0,-8404.0,10604.0,-3639.0,222.0,5445.0,16985.401261083
20.29344606399536,9904.0,-8336.0,11168.0,-2916.0,-307.0,5676.0,17096.85163999501
20.31568479537964,10248.0,-8972.0,11112.0,-2051.0,-298.0,6242.0,17578.248832008267
20.33782386779785,10892.0,-8996.0,11232.0,-1319.0,-203.0,6805.0,18047.756204027137
20.360747814178467,11356.0,-9028.0,11024.0,-492.0,414.0,6448.0,18220.65026281993
20.383715391159058,11572.0,-9064.0,11124.0,568.0,-1397.0,5688.0,18433.953889494245
20.40585160255432,11796.0,-9676.0,11220.0,1903.0,-1094.0,4801.0,18938.294326575455
20.42854881286621,11808.0,-9828.0,10860.0,2815.0,238.0,4141.0,18813.772827373035
20.451009273529053,11432.0,-9176.0,10152.0,2889.0,937.0,3064.0,17831.228336825257
20.473599672317505,11064.0,-9268.0,9912.0,2141.0,-133.0,1660.0,17508.731079093082
20.495506048202515,12032.0,-10168.0,11264.0,783.0,-2508.0,411.0,19365.818960219574
20.51826763153076,13692.0,-10832.0,13708.0,2048.0,250.0,-1062.0,22197.12485886404
20.5405912399292,13812.0,-11016.0,13940.0,5716.0,1153.0,-3195.0,22504.381795552617
20.563009023666382,14484.0,-10684.0,12988.0,7122.0,-3942.0,-5270.0,22195.09531405531
20.58529281616211,16884.0,-10744.0,14852.0,7375.0,-1758.0,-8022.0,24921.5749101055
20.60751247406006,17044.0,-10168.0,15320.0,9714.0,1318.0,-12275.0,25071.6684726007
20.630160570144653,16892.0,-9804.0,14620.0,12083.0,-1706.0,-16624.0,24396.77191761238
20.652442693710327,16028.0,-9408.0,14704.0,12538.0,-1504.0,-20311.0,23698.414799306724
20.674061059951782,15152.0,-9448.0,15040.0,14134.0,4521.0,-22610.0,23346.293238970506
20.696049690246582,12668.0,-8864.0,13760.0,17522.0,7883.0,-23869.0,20697.49550066384
20.717648029327393,8716.0,-7696.0,13148.0,22034.0,4582.0,-24889.0,17551.83682695347
20.739046096801758,8784.0,-4440.0,12312.0,22470.0,-297.0,-24068.0,15762.537866726918
20.760496616363525,8176.0,-3680.0,10512.0,20475.0,6464.0,-21912.0,13816.349735005986
20.783522605895996,6208.0,-1744.0,8524.0,18810.0,9221.0,-19175.0,10688.282181903694
20.80678415298462,5456.0,232.0,8040.0,16691.0,4411.0,-16234.0,9719.226306656306
20.83006978034973,7616.0,2372.0,8660.0,14996.0,2589.0,-13941.0,11773.930524680363
20.853331327438354,7232.0,4936.0,8940.0,12911.0,5407.0,-13995.0,12513.5734304794
20.877126693725586,7360.0,5664.0,10580.0,10477.0,1957.0,-13264.0,14077.886773234113
20.90079689025879,6528.0,5152.0,10952.0,12201.0,-4917.0,-12662.0,13751.515989155523
20.923946142196655,7252.0,7192.0,11436.0,9197.0,3376.0,-12541.0,15332.920921990044
20.94671940803528,7592.0,6956.0,10988.0,10107.0,-391.0,-11792.0,15058.57045007925
20.970077514648438,5736.0,8328.0,9732.0,9946.0,-3889.0,-11464.0,14034.568180033186
20.992744207382202,4952.0,9268.0,10024.0,8211.0,-6261.0,-9601.0,14522.351875643284
21.015817165374756,6512.0,9360.0,11104.0,7127.0,-4755.0,-7906.0,15915.858757855323
21.038881301879883,6892.0,10356.0,11764.0,8728.0,-7919.0,-7956.0,17121.276120663435
21.061619520187378,5980.0,10160.0,10916.0,10929.0,-10101.0,-8145.0,16066.8931657617
21.085747480392456,5876.0,10464.0,11068.0,10936.0,-9744.0,-6091.0,16325.541216143494
21.109029531478882,8496.0,11000.0,11892.0,12307.0,-10038.0,-4269.0,18292.120708108177
21.132558584213257,9240.0,10900.0,8928.0,16592.0,-10181.0,-6454.0,16849.236896666862
21.15593433380127,7004.0,12700.0,4988.0,14867.0,-9146.0,-7330.0,15337.084468698737
21.17846131324768,7676.0,12884.0,4300.0,10624.0,-5014.0,-6576.0,15601.552230467327
21.201765298843384,7196.0,13008.0,5084.0,7266.0,-1934.0,-5733.0,15711.064126913874
21.22480034828186,8568.0,12716.0,6596.0,5827.0,2629.0,-5386.0,16691.74933911961
21.24771499633789,8372.0,12876.0,7240.0,6980.0,4992.0,-5886.0,16979.38043628212
21.270330667495728,9068.0,12980.0,7036.0,9780.0,2951.0,-6608.0,17326.693856590184
21.293325662612915,6840.0,13196.0,4376.0,11648.0,1718.0,-7648.0,15494.17284013574
21.316431999206543,4188.0,13684.0,1320.0,10097.0,1315.0,-6442.0,14371.27690916851
21.34060049057007,4124.0,14220.0,692.0,6939.0,-278.0,-4269.0,14822.099716302006
21.363938093185425,4248.0,14572.0,1120.0,5124.0,-1768.0,-3146.0,15219.825491772237
21.387348413467407,3744.0,14568.0,1408.0,4009.0,-1439.0,-2328.0,15107.171277244459
21.409934759140015,4584.0,14908.0,1412.0,2799.0,-762.0,-1159.0,15660.62782904951
21.433948755264282,3928.0,15076.0,1016.0,2115.0,-354.0,-893.0,15612.405836385371
21.45688009262085,3572.0,15172.0,1504.0,621.0,1968.0,-297.0,15659.207642789594
21.479933261871338,2980.0,14616.0,2308.0,418.0,3596.0,452.0,15094.194910627066
21.50255036354065,4172.0,14324.0,1524.0,1025.0,721.0,2139.0,14996.837533293477
21.52505898475647,4904.0,14604.0,-376.0,656.0,-2188.0,2601.0,15409.977547031014
21.549198150634766,4360.0,14916.0,-616.0,-1933.0,-2034.0,3084.0,15552.366765222585
21.572731971740723,4728.0,14536.0,1212.0,-4339.0,22.0,3647.0,15333.565273608092
21.595353841781616,5280.0,14040.0,2652.0,-4934.0,202.0,5045.0,15232.632865004001
21.61808705329895,6336.0,13860.0,3020.0,-3859.0,-2641.0,5883.0,15535.922759849187
21.640780925750732,5540.0,13688.0,1100.0,-3255.0,-6099.0,6706.0,14807.529976332988
21.664090156555176,4580.0,13840.0,-168.0,-5163.0,-8383.0,8514.0,14579.102304325874
21.687034606933594,4924.0,13400.0,12.0,-8017.0,-8597.0,10552.0,14276.061081404772
21.709203004837036,5964.0,12440.0,1384.0,-10150.0,-9198.0,13019.0,13865.004579876633
21.731557846069336,7740.0,12156.0,3024.0,-10989.0,-8967.0,14679.0,14724.826382677658
21.753738164901733,7928.0,11288.0,4176.0,-11020.0,-7669.0,15502.0,14412.185954947987
21.776411533355713,8648.0,10200.0,5596.0,-9357.0,-6300.0,16621.0,14496.314014258935
21.799126148223877,8196.0,8660.0,5120.0,-6394.0,-4973.0,17717.0,12976.302092661068
21.821930646896362,10856.0,7952.0,5296.0,-5483.0,-1419.0,20629.0,14461.488720045389
21.84459614753723,12588.0,8528.0,4184.0,-5163.0,-847.0,21076.0,15769.920228079785
21.868601322174072,13284.0,8024.0,4128.0,-5833.0,657.0,20029.0,16058.941932767551
21.89213252067566,13212.0,7072.0,5308.0,-5774.0,1751.0,18926.0,15897.95559183633
21.915756702423096,13400.0,5904.0,5824.0,-4764.0,3064.0,18430.0,15758.686239658431
21.939293146133423,14604.0,6180.0,5792.0,-4761.0,2635.0,19383.0,16882.431104553634
21.962507724761963,17476.0,5256.0,6340.0,-4165.0,396.0,18683.0,19319.205780776807
21.985268354415894,17548.0,4708.0,7504.0,-2765.0,1166.0,15938.0,19657.252707334257
22.00814127922058,16292.0,3436.0,7808.0,-1375.0,1873.0,15238.0,18390.220879587065
22.031829595565796,16680.0,2936.0,7784.0,371.0,3228.0,14920.0,18639.5587930616
22.056636095046997,16480.0,2656.0,6548.0,1468.0,2597.0,14535.0,17931.007779820964
22.079790353775024,17480.0,2024.0,5732.0,732.0,1101.0,14282.0,18506.831171218913
22.103102922439575,18068.0,1612.0,5832.0,323.0,-471.0,13311.0,19054.222419190977
22.12650990486145,17996.0,1008.0,5936.0,472.0,-1723.0,12217.0,18976.516434793823
22.149213075637817,18244.0,752.0,5884.0,-104.0,225.0,10642.0,19184.120933730585
22.17180347442627,17564.0,68.0,6024.0,34.0,1586.0,9110.0,18568.44893899326
22.19445300102234,16792.0,-96.0,6372.0,368.0,727.0,8444.0,17960.591972426744
22.21796703338623,17696.0,-1012.0,6900.0,1436.0,775.0,7958.0,19020.582535768983
22.241244316101074,18496.0,-1052.0,5980.0,2515.0,1082.0,6623.0,19467.129218248898
22.264319896697998,17536.0,-1088.0,4940.0,2388.0,847.0,4809.0,18250.990110128274
22.287915468215942,16116.0,-1448.0,4916.0,1500.0,800.0,4070.0,16911.21568663826
22.311648845672607,15488.0,-2020.0,5108.0,440.0,583.0,4737.0,16433.204434923824
22.334805488586426,15820.0,-2120.0,5908.0,11.0,961.0,5129.0,17019.731607754573
22.35786247253418,15812.0,-1856.0,6624.0,-104.0,1345.0,4902.0,17243.591737222265
22.38086247444153,15444.0,-2036.0,7100.0,198.0,1074.0,5019.0,17119.358399192417
22.403822422027588,16224.0,-2536.0,7380.0,1145.0,284.0,5433.0,18003.16283323572
22.427244186401367,16988.0,-2380.0,6748.0,2066.0,-698.0,5233.0,18433.44916178196
22.450915336608887,17200.0,-2548.0,6388.0,1967.0,-1344.0,4619.0,18524.007341825363
22.47356653213501,17076.0,-2600.0,6868.0,2230.0,-1083.0,4097.0,18588.146760772037
22.496334314346313,17028.0,-2840.0,6888.0,3146.0,-1287.0,3605.0,18586.633046358882
22.519705295562744,17060.0,-2936.0,6876.0,4350.0,-1969.0,3072.0,18626.407919939906
22.542853593826294,16604.0,-2960.0,6336.0,5221.0,-2276.0,2520.0,18016.639864303223
22.565819263458252,16144.0,-3084.0,5804.0,5770.0,-1692.0,2208.0,17430.611234262557
22.588560104370117,15904.0,-2992.0,5244.0,5398.0,-1014.0,1529.0,17011.43192091718
22.611127376556396,14736.0,-2860.0,5112.0,4457.0,-830.0,900.0,15857.548360323546
22.6342294216156,14220.0,-3388.0,5144.0,3177.0,-632.0,1407.0,15496.699003336162
22.656972885131836,15212.0,-3516.0,6108.0,2336.0,-46.0,2323.0,16765.287471439315
22.68063235282898,15908.0,-3776.0,6564.0,2822.0,201.0,2319.0,17618.420360520406
22.7041232585907,15740.0,-3552.0,5712.0,3448.0,-202.0,2139.0,17116.987118064906
22.72779154777527,16052.0,-3728.0,4152.0,2539.0,-420.0,2305.0,16994.228196655476
22.751330137252808,17312.0,-3796.0,3444.0,637.0,-251.0,2358.0,18054.80811307614
22.773711919784546,18728.0,-4228.0,2980.0,-1352.0,1140.0,1068.0,19429.2142918853
22.796047925949097,18144.0,-4296.0,2500.0,-3287.0,2121.0,-1063.0,18812.50520265709
22.819273471832275,16628.0,-4720.0,1692.0,-5382.0,1740.0,-2045.0,17367.545825475747
22.842620611190796,16372.0,-4728.0,1464.0,-7964.0,190.0,-1768.0,17103.790924821315
22.86612033843994,17212.0,-4724.0,2240.0,-10292.0,777.0,-2129.0,17988.516336818888
22.889322757720947,16788.0,-4624.0,2736.0,-11848.0,2281.0,-3499.0,17626.79823450646
22.91256022453308,16152.0,-5092.0,2172.0,-13583.0,2198.0,-4253.0,17074.341919968687
22.93585467338562,16400.0,-4848.0,1664.0,-15699.0,1715.0,-4735.0,17182.316491090485
22.959296226501465,16140.0,-4872.0,2112.0,-18264.0,1625.0,-5557.0,16991.072008557905
22.98255491256714,15760.0,-5416.0,3380.0,-20124.0,1635.0,-6174.0,17003.971771324486
23.005502939224243,15484.0,-5272.0,5116.0,-21249.0,544.0,-6209.0,17138.310768567597
23.028615713119507,17228.0,-5344.0,7116.0,-21116.0,-1158.0,-6116.0,19390.713653705476
23.051925897598267,19020.0,-5952.0,7820.0,-19349.0,-769.0,-7572.0,21408.85573775488
23.075493335723877,18292.0,-6152.0,6724.0,-16902.0,839.0,-10101.0,20436.647083120068
23.098551273345947,15536.0,-4928.0,5216.0,-16933.0,-591.0,-11310.0,17113.127592582252
23.122411727905273,14172.0,-5432.0,5704.0,-17717.0,-1289.0,-10326.0,16213.815837118664
23.145756483078003,13944.0,-4916.0,6600.0,-17743.0,-247.0,-8104.0,16191.423408706229
23.16924285888672,14976.0,-5128.0,6576.0,-15951.0,1075.0,-6124.0,17141.19995799594
23.19273853302002,16260.0,-3476.0,5968.0,-14497.0,-266.0,-5105.0,17665.989924145208
23.216817617416382,17564.0,-2292.0,6416.0,-14701.0,557.0,-5845.0,18839.119300009756
23.240177154541016,17236.0,-2460.0,7472.0,-13295.0,3792.0,-7433.0,18946.294624543345
23.264193296432495,16064.0,-2984.0,7484.0,-10310.0,4980.0,-7889.0,17971.271741309796
23.28791356086731,15148.0,-2300.0,5400.0,-7636.0,1952.0,-7589.0,16245.365616076482
23.31093740463257,14700.0,-1292.0,4396.0,-8130.0,-1063.0,-7015.0,15397.534867633845
23.334614276885986,14612.0,-1632.0,5096.0,-9190.0,-462.0,-6436.0,15560.950613635403
23.357836723327637,14360.0,-1560.0,6100.0,-9470.0,221.0,-5216.0,15679.70662990861
23.38115930557251,15756.0,-2232.0,5964.0,-8104.0,1841.0,-4382.0,16994.19477351016
23.40464425086975,15948.0,-1920.0,5248.0,-6793.0,1504.0,-4515.0,16898.716164253427
23.428403854370117,15148.0,-1232.0,4964.0,-6797.0,-309.0,-4380.0,15988.152613732456
23.45160984992981,15804.0,-1620.0,6028.0,-7026.0,-152.0,-3470.0,16991.986346510523
23.47460627555847,16688.0,-2072.0,6548.0,-5718.0,3335.0,-3045.0,18046.019838180386
23.49826407432556,16600.0,-1284.0,5616.0,-4004.0,3230.0,-3098.0,17571.22966670233
23.521368265151978,16008.0,-496.0,4004.0,-3730.0,275.0,-3122.0,16508.606724978337
23.54377055168152,16760.0,-504.0,4496.0,-4712.0,-995.0,-2473.0,17359.885713909523
23.56730341911316,17828.0,-352.0,5348.0,-4755.0,840.0,-2837.0,18616.191662098885
23.590715885162354,19076.0,-132.0,6564.0,-3909.0,4045.0,-3967.0,20174.173985568777
23.614344120025635,18776.0,-132.0,5800.0,-1434.0,5549.0,-6352.0,19651.859962863567
23.637627124786377,15820.0,880.0,2360.0,-1030.0,117.0,-7977.0,16019.250918816397
23.66054081916809,13916.0,860.0,2256.0,-4273.0,-3474.0,-7297.0,14123.887283605742
23.68395447731018,12040.0,-372.0,4092.0,-6391.0,-2124.0,-5287.0,12721.80993412494
23.707820177078247,10020.0,-84.0,4680.0,-6966.0,-1256.0,-2092.0,11059.37864439047
23.73067021369934,9304.0,128.0,5444.0,-7185.0,-1317.0,1955.0,10780.442291483221
23.754399061203003,10796.0,-52.0,7252.0,-6340.0,-281.0,5546.0,13005.68429572239
23.77767539024353,12776.0,-728.0,8448.0,-4355.0,2445.0,8072.0,15333.781790543388
23.801807403564453,14576.0,-220.0,9288.0,-2436.0,6772.0,9003.0,17285.11266957783
23.826133728027344,14720.0,-936.0,10932.0,-195.0,11472.0,9058.0,18359.27885293973
23.849590301513672,12444.0,-2128.0,9616.0,3916.0,13165.0,9384.0,15869.750344602147
23.872921228408813,11340.0,-3124.0,7028.0,5831.0,8107.0,12106.0,13702.10786704002
23.89598321914673,13996.0,-3552.0,5852.0,4850.0,5025.0,15554.0,15580.456475982981
23.91867971420288,16080.0,-3232.0,5620.0,1886.0,6751.0,16032.0,17337.722572471852
23.941849946975708,15712.0,-3604.0,6996.0,-701.0,9077.0,14919.0,17572.699735669532
23.96526575088501,14832.0,-4536.0,8204.0,-1957.0,10647.0,14261.0,17546.200044454068
23.988417863845825,14816.0,-5296.0,9552.0,-1801.0,9467.0,14415.0,18406.579693142343
24.011627197265625,14636.0,-6156.0,10588.0,-749.0,6695.0,13849.0,19084.406619017525
24.034730195999146,14544.0,-7256.0,11048.0,431.0,4104.0,13250.0,19652.882129601247
24.058411836624146,14504.0,-7604.0,11236.0,1584.0,3336.0,12076.0,19860.375827259664
24.081549644470215,13668.0,-7844.0,10772.0,3158.0,495.0,10570.0,19088.701998826426
24.10480809211731,12264.0,-8216.0,9936.0,5391.0,-3480.0,9160.0,17794.168932546414
24.128330945968628,9936.0,-7784.0,8084.0,6043.0,-6060.0,8231.0,14988.856127136587
24.15223002433777,8036.0,-8204.0,7556.0,4566.0,-7399.0,8707.0,13746.85593144847
24.17535090446472,7260.0,-8984.0,8420.0,3242.0,-5916.0,10544.0,14293.923744024942
24.198259830474854,6552.0,-9084.0,8992.0,2987.0,-5110.0,13479.0,14363.280405255618
24.22152853012085,7612.0,-9940.0,9956.0,3580.0,-6802.0,16014.0,15995.876968769171
24.24522113800049,9268.0,-10728.0,10660.0,4835.0,-4153.0,18026.0,17737.57052135382
24.268810510635376,10352.0,-10808.0,10756.0,6346.0,-3867.0,19416.0,18430.092349198905
24.29178237915039,11712.0,-10692.0,10736.0,7601.0,-5320.0,19598.0,19150.757269622525
24.315171003341675,12736.0,-10264.0,11108.0,8724.0,-5998.0,19150.0,19772.27998992529
24.338127851486206,14392.0,-12468.0,10832.0,9104.0,-3621.0,18185.0,21906.91470746166
24.36203956604004,14536.0,-12872.0,10620.0,10039.0,-877.0,16405.0,22130.70446235275
24.38541078567505,15176.0,-12952.0,9660.0,11252.0,-2367.0,14855.0,22167.11257696861
24.409247398376465,15888.0,-11880.0,9376.0,12035.0,-1935.0,12000.0,21942.477526478182
24.43282175064087,16124.0,-10096.0,9004.0,10600.0,-1601.0,7360.0,21047.199528678393
24.45573902130127,14140.0,-9516.0,9132.0,7745.0,-836.0,1795.0,19336.165079973845
24.479921579360962,11224.0,-9296.0,10524.0,5708.0,-663.0,-1597.0,17976.327989887144
24.50364923477173,8968.0,-9560.0,12388.0,6664.0,-4334.0,-2701.0,18035.552888669645
24.526944160461426,8648.0,-10364.0,13488.0,8616.0,-4733.0,-3098.0,19082.100094067213
24.550111770629883,9000.0,-10332.0,14088.0,11978.0,-3438.0,-2948.0,19652.530829386837
24.573333263397217,8568.0,-9208.0,12956.0,14489.0,-3404.0,-2019.0,18057.01592179616
24.596978425979614,9524.0,-9560.0,11148.0,15533.0,-2573.0,-789.0,17503.659046039487
24.621020078659058,10036.0,-8528.0,9564.0,15463.0,-3761.0,-1496.0,16276.307197887363
24.644371032714844,11012.0,-6852.0,9304.0,12172.0,-4770.0,-1561.0,15961.781354222341
24.667287826538086,13144.0,-7424.0,10268.0,8954.0,-2689.0,-1184.0,18256.843538793884
24.690794229507446,14688.0,-7876.0,11276.0,8450.0,2276.0,-2032.0,20122.546956088834
24.714094877243042,14252.0,-6292.0,11680.0,9117.0,1781.0,-4412.0,19471.290866298517
24.737005472183228,13100.0,-5308.0,11424.0,9022.0,-1011.0,-7975.0,18173.954990590242
24.760524034500122,12668.0,-6632.0,11788.0,8407.0,514.0,-10883.0,18531.556653449272
24.783524751663208,11624.0,-6464.0,12152.0,9276.0,4066.0,-13103.0,18015.875665645563
24.80741024017334,10780.0,-4844.0,12132.0,9404.0,3374.0,-13539.0,16936.887553502856
24.831053972244263,10488.0,-4144.0,11856.0,7437.0,2383.0,-13239.0,16362.628639677672
24.854877948760986,12268.0,-5928.0,12420.0,5206.0,4965.0,-12989.0,18436.415269786045
24.878040075302124,12128.0,-4524.0,13624.0,6558.0,6959.0,-15849.0,18792.773504727822
24.902077674865723,10164.0,-3360.0,13076.0,7926.0,2716.0,-18208.0,16899.061275704044
24.92572832107544,8956.0,-1840.0,13236.0,4569.0,-2681.0,-17651.0,16086.865201150908
24.949299335479736,11016.0,-1916.0,16016.0,541.0,3425.0,-17438.0,19532.93546807545
24.972754955291748,9848.0,-1048.0,18368.0,1363.0,5202.0,-17452.0,20867.794133544638
24.996381044387817,8712.0,-1248.0,19088.0,5740.0,3804.0,-16861.0,21019.233858540134
25.019792318344116,8308.0,-320.0,19432.0,11406.0,4795.0,-16974.0,21135.93830422487
25.043742179870605,6584.0,1524.0,18508.0,15814.0,5452.0,-15706.0,19703.240748668733
25.066933393478394,5380.0,3368.0,16556.0,17465.0,4709.0,-13392.0,17731.01689131224
25.08993673324585,5220.0,2852.0,13872.0,17356.0,7870.0,-10544.0,15093.53132967895
25.113953590393066,4292.0,4592.0,12172.0,18064.0,8636.0,-8873.0,13699.098948471026
25.137973070144653,3752.0,5592.0,10416.0,18585.0,6384.0,-7786.0,12403.266666487503
25.161630868911743,2784.0,7028.0,8408.0,17245.0,4054.0,-6458.0,11306.542530765097
25.184861421585083,2844.0,8288.0,7180.0,13010.0,4386.0,-4654.0,11328.357338996682
25.208173990249634,2752.0,8428.0,6516.0,9135.0,5636.0,-3275.0,11002.860718922147
25.231570720672607,2596.0,9820.0,6420.0,6113.0,2275.0,-2088.0,12016.156457037334
25.255380630493164,3764.0,9904.0,6488.0,2390.0,1235.0,-1267.0,12423.810043621885
25.27833127975464,4580.0,9880.0,6644.0,-678.0,481.0,-917.0,12756.7055308179
25.300800323486328,4440.0,10248.0,6944.0,-3428.0,-1794.0,-1164.0,13151.206788732356
25.323843717575073,3192.0,10092.0,7436.0,-6138.0,-4133.0,-866.0,12935.664807036397
25.34636878967285,3892.0,10120.0,8564.0,-9268.0,-3686.0,583.0,13816.807156503271
25.36951494216919,5388.0,9612.0,9980.0,-10587.0,-2922.0,1485.0,14866.791449401582
25.392301559448242,6856.0,8828.0,9948.0,-9779.0,-3542.0,1673.0,14963.32262567375
25.414694786071777,7536.0,9400.0,9748.0,-10263.0,-4748.0,872.0,15497.574003694901
25.437597513198853,7168.0,8212.0,10636.0,-11323.0,-2532.0,-396.0,15229.631118316687
25.4604229927063,6452.0,7136.0,10296.0,-10023.0,-1821.0,-504.0,14091.075757372111
25.482001543045044,6416.0,6836.0,8336.0,-9797.0,-3403.0,-234.0,12545.311793654233
25.50411891937256,5812.0,7880.0,8072.0,-12962.0,-2965.0,-915.0,12689.796215857841
25.52567958831787,5120.0,6332.0,9708.0,-16741.0,77.0,-1399.0,12670.986070547153
25.547853469848633,4820.0,3812.0,11428.0,-16263.0,445.0,-295.0,12975.474095384723
25.570425748825073,5296.0,3280.0,10344.0,-14626.0,-1059.0,1415.0,12074.947287669624
25.592847108840942,5680.0,3936.0,9696.0,-17026.0,-4321.0,2247.0,11906.591115848398
25.6154465675354,7172.0,3372.0,12536.0,-22285.0,-2532.0,2074.0,14831.023700338423
25.637355089187622,7192.0,1324.0,15720.0,-23049.0,2142.0,1106.0,17337.711498349487
25.65952157974243,5520.0,-168.0,16784.0,-20025.0,2708.0,846.0,17669.218432064277
25.68189835548401,4616.0,-604.0,16608.0,-16935.0,316.0,1817.0,17248.128478185685
25.70375418663025,5392.0,-836.0,17768.0,-17504.0,541.0,3051.0,18586.941222266778
25.725672721862793,6492.0,-2284.0,19680.0,-16995.0,4186.0,3626.0,20848.623935406384
25.74751377105713,6152.0,-2948.0,19880.0,-13174.0,3013.0,3570.0,21017.90208369998
25.769458770751953,6060.0,-2768.0,19476.0,-10073.0,925.0,3432.0,20583.974348992957
25.792886972427368,6052.0,-3244.0,19316.0,-9047.0,2193.0,3016.0,20500.197462463624
25.81562852859497,6200.0,-3824.0,19484.0,-8072.0,3576.0,3039.0,20801.18342787256
25.8379385471344,6348.0,-4016.0,19180.0,-6232.0,3517.0,2882.0,20598.489264992226
25.86014199256897,6252.0,-4416.0,18264.0,-4666.0,3189.0,2453.0,19803.08703207659
25.88221001625061,6384.0,-1348.0,32767.0,13791.0,13730.0,2025.0,33410.31051935914
25.903067111968994,8364.0,-5576.0,12312.0,7589.0,-5464.0,2407.0,15894.452365526784
25.924320697784424,5352.0,-4964.0,17064.0,5599.0,4667.0,2822.0,18559.776291755243
25.945584058761597,4940.0,-4832.0,17920.0,3336.0,2267.0,3559.0,19206.20274807074
25.965962171554565,3992.0,-4044.0,15796.0,3769.0,-3190.0,4587.0,16787.00735688169
25.98673176765442,4672.0,-4136.0,15596.0,4343.0,-5104.0,6223.0,16797.895582482943
26.007821321487427,5156.0,-5172.0,15192.0,4005.0,-2603.0,7047.0,16856.17940103866
26.028238773345947,5208.0,-3028.0,15152.0,6224.0,-4882.0,7796.0,16305.67852007392
26.048747062683105,4064.0,-352.0,16064.0,8467.0,-6455.0,5689.0,16573.83769680396
26.073379516601562,6964.0,1916.0,14984.0,729.0,12855.0,2431.0,16633.95948053259
26.093461751937866,2736.0,-2328.0,17764.0,376.0,8701.0,2732.0,18123.602732348776
26.113733053207397,3888.0,-1640.0,15724.0,3093.0,1470.0,1824.0,16280.36608924996
26.134412050247192,3940.0,-1420.0,15356.0,629.0,6899.0,-469.0,15916.86954146449
26.15446662902832,3824.0,-1588.0,16000.0,108.0,7618.0,-1207.0,16527.090488044167
26.1744065284729,1860.0,-1500.0,14328.0,1580.0,8292.0,-3005.0,14525.879801237514
26.19479775428772,3356.0,-956.0,17516.0,1119.0,10349.0,-3679.0,17860.20514999758
26.215085744857788,3416.0,-3044.0,17600.0,200.0,7024.0,-2011.0,18185.02108879723
26.23645043373108,944.0,-1096.0,15916.0,234.0,5233.0,-2949.0,15981.595915302076
26.256284713745117,2756.0,-2640.0,16760.0,78.0,5137.0,-2826.0,17189.02952467067
26.276612758636475,1604.0,-1232.0,17284.0,-542.0,2643.0,-2313.0,17401.93368565689
26.29681897163391,788.0,236.0,16520.0,-578.0,1069.0,-3297.0,16540.466740693868
26.31721305847168,848.0,120.0,16192.0,-547.0,1998.0,-5095.0,16214.634377623197
26.33753752708435,504.0,-644.0,15924.0,-715.0,3709.0,-6945.0,15944.984415169554
26.357994079589844,304.0,472.0,17044.0,-596.0,2403.0,-8245.0,17053.244148841593
26.37844467163086,1588.0,776.0,16720.0,-1100.0,2690.0,-8993.0,16813.159132060817
26.398648500442505,1996.0,-720.0,15920.0,-848.0,2385.0,-8559.0,16060.785036852962
26.41858148574829,2400.0,-924.0,16080.0,-849.0,3329.0,-6715.0,16284.353717602673
26.43877625465393,1728.0,-140.0,16948.0,-858.0,2715.0,-4480.0,17036.440003709697
26.45856809616089,780.0,1448.0,17644.0,-229.0,-1822.0,-2569.0,17720.49209248998
26.478771209716797,1496.0,-464.0,16272.0,-114.0,-2104.0,-2173.0,16347.210648915001
26.498691082000732,1412.0,-560.0,16272.0,-785.0,1401.0,-2710.0,16342.745424193574
26.51898717880249,592.0,-12.0,16892.0,-577.0,425.0,-2534.0,16902.374744396126
26.539000749588013,1152.0,-184.0,16848.0,-253.0,-1626.0,-2105.0,16888.341067138597
26.560103178024292,-796.0,3296.0,16380.0,-548.0,-1173.0,-1873.0,16727.272102766787
26.580472707748413,-172.0,1360.0,16784.0,-568.0,-1734.0,-1724.0,16839.88836067508
26.6002516746521,-36.0,504.0,16756.0,-610.0,-2207.0,184.0,16763.616793520425
26.620555639266968,560.0,-40.0,16796.0,-623.0,-3039.0,3650.0,16805.380566949385
26.641321420669556,2128.0,-1744.0,16224.0,-978.0,-2388.0,7490.0,16455.640248863
26.66173005104065,4660.0,-3992.0,15748.0,-457.0,-2040.0,8595.0,16901.217944278455
26.681939363479614,4688.0,-2468.0,15640.0,-54.0,-1228.0,7323.0,16512.963634672004
26.701770782470703,3248.0,-1304.0,16648.0,-366.0,-1899.0,4805.0,17011.931812701343
26.72175431251526,156.0,-40.0,18344.0,-359.0,-7350.0,3351.0,18344.70692052615
26.741580486297607,488.0,428.0,18000.0,-1304.0,-12612.0,3680.0,18011.699753215962
26.761524438858032,-580.0,-608.0,17300.0,-1131.0,-14905.0,4403.0,17320.39445278311
26.781402587890625,4428.0,-2924.0,18152.0,722.0,-13679.0,5130.0,18911.691198832537
26.801795959472656,7128.0,-2036.0,18316.0,5226.0,-15123.0,3016.0,19759.28986578212
26.821553707122803,5528.0,-2088.0,14960.0,7666.0,-13439.0,624.0,16084.779389223839
26.841020107269287,6856.0,-1540.0,13168.0,5835.0,-8114.0,313.0,14925.567325900882
26.86159634590149,7004.0,-112.0,13680.0,2975.0,-6428.0,-1146.0,15369.156125174863
26.881925582885742,6216.0,784.0,15436.0,661.0,-5163.0,-2113.0,16659.033825525417
26.90167999267578,6332.0,-1080.0,16920.0,1105.0,-4213.0,-2414.0,18098.260247880182
26.921888828277588,5832.0,-1616.0,17032.0,3511.0,-2683.0,-2567.0,18075.195821899135
26.94248056411743,4912.0,-572.0,15996.0,4713.0,-2375.0,-1752.0,16742.967001102283
26.966988563537598,5384.0,1132.0,16092.0,3549.0,-1157.0,-901.0,17006.5088716056
26.98775577545166,6100.0,1720.0,17676.0,2937.0,2111.0,-1348.0,18777.895941771538
27.007339239120483,6396.0,1000.0,18540.0,4632.0,3737.0,-1609.0,19637.7294003151
27.02762222290039,5752.0,1736.0,17312.0,6982.0,2031.0,-1021.0,18324.97050475116
27.04752516746521,5568.0,2104.0,16016.0,7185.0,3231.0,-1023.0,17086.30141370566
27.067408800125122,3852.0,3956.0,15192.0,6442.0,3358.0,-773.0,16164.30338740275
27.087428331375122,3636.0,4664.0,15596.0,4966.0,2234.0,367.0,16679.586565619666
27.108154296875,4068.0,4344.0,16124.0,4614.0,1317.0,1563.0,17187.27250031255
27.12875485420227,5700.0,3608.0,16264.0,5132.0,936.0,2671.0,17607.537022536682
27.149009466171265,5300.0,4568.0,14392.0,5929.0,-123.0,2795.0,16002.696272816029
27.1691153049469,5352.0,3660.0,12888.0,4432.0,-1842.0,3986.0,14427.059575672376
27.190940141677856,6436.0,4504.0,12792.0,2413.0,-2744.0,4277.0,15011.441503066919
27.21128749847412,7184.0,3968.0,13240.0,520.0,-3614.0,3930.0,15577.30657077789
27.23147201538086,8108.0,3300.0,13520.0,-438.0,-5321.0,3963.0,16106.52240553497
27.251549243927002,9116.0,2584.0,13428.0,-945.0,-5391.0,3130.0,16434.40586087614
27.272104263305664,8824.0,3392.0,13416.0,-1938.0,-5618.0,1904.0,16412.120399265903
27.292630434036255,8976.0,2588.0,13712.0,-2897.0,-6308.0,1021.0,16591.72275563933
27.313103437423706,20484.0,604.0,13724.0,-2217.0,-3692.0,-3399.0,24663.885500869485
27.33336067199707,7380.0,8.0,11432.0,-2668.0,-6137.0,-5946.0,13607.17046266416
27.353816032409668,6428.0,1364.0,10684.0,-6166.0,-6363.0,-2197.0,12543.027385762976
27.37445044517517,5628.0,472.0,17064.0,-4539.0,-10779.0,337.0,17974.350169060355
27.39461374282837,8528.0,1652.0,21392.0,3554.0,-8528.0,2977.0,23088.38565166478
27.415518045425415,9208.0,5108.0,8424.0,-2299.0,4229.0,2220.0,13484.906525445402
27.435832500457764,9596.0,4096.0,9228.0,-6791.0,-1695.0,-523.0,13928.97756477481
27.456002712249756,7436.0,3884.0,11932.0,-7987.0,-6583.0,-2456.0,14586.026737943408
27.47620463371277,6312.0,1864.0,32767.0,5958.0,-16982.0,-1282.0,33421.43218056342
27.49633765220642,8672.0,4252.0,20816.0,12580.0,4722.0,-1498.0,22947.525879710865
27.51684331893921,6328.0,5020.0,13704.0,4889.0,13136.0,-1015.0,15907.344215801706
27.537131309509277,8736.0,4116.0,14744.0,5226.0,11632.0,-2914.0,17625.11526203446
27.556999444961548,6416.0,4720.0,11812.0,4709.0,3884.0,-3141.0,14246.641709539832
27.57677173614502,7608.0,5328.0,13956.0,1993.0,-3622.0,-5288.0,16764.22333423174
27.59766912460327,7844.0,4272.0,15420.0,611.0,-8465.0,-6069.0,17820.065095279533
27.617852926254272,6020.0,-164.0,15944.0,-1167.0,-9624.0,-6661.0,17043.427824237704
27.63814949989319,7116.0,4720.0,14356.0,-660.0,-3769.0,-5970.0,16703.610148707376
27.657838821411133,7312.0,4264.0,13104.0,-3172.0,-10244.0,-8010.0,15600.059487066066
27.677226781845093,7800.0,4280.0,13140.0,-5316.0,-12940.0,-8598.0,15868.77436981193
27.697068214416504,9284.0,3620.0,11804.0,-9063.0,-11759.0,-8263.0,15447.70118820273
27.716655254364014,11440.0,6140.0,9904.0,-12259.0,-9083.0,-8302.0,16329.801468480871
27.736576795578003,12288.0,5784.0,8948.0,-12963.0,-10995.0,-6872.0,16263.95720604306
27.75609540939331,12684.0,4268.0,8392.0,-10933.0,-9605.0,-4108.0,15796.371228861393
27.775216817855835,13120.0,3580.0,7144.0,-9940.0,-4183.0,-1796.0,15361.885821734257
27.7952823638916,12544.0,3512.0,7048.0,-8712.0,-2336.0,374.0,14810.819828760325
27.81547260284424,11820.0,3560.0,8212.0,-6793.0,-1069.0,2306.0,14826.42721629186
27.83534598350525,10276.0,3396.0,10224.0,-7098.0,-2811.0,2513.0,14888.222459380435
27.855628728866577,10556.0,3084.0,11740.0,-8014.0,-3436.0,2239.0,16086.260970157111
27.875460386276245,11036.0,2904.0,11652.0,-8454.0,-3782.0,2340.0,16309.372029603102
27.89622950553894,11100.0,2604.0,11352.0,-8310.0,-6336.0,2580.0,16089.086984661373
27.916375875473022,11448.0,1660.0,11680.0,-7156.0,-8915.0,2215.0,16438.81698906585
27.93613052368164,11908.0,456.0,11732.0,-6194.0,-11669.0,1770.0,16722.685908669097
27.956507921218872,12284.0,-300.0,11736.0,-4934.0,-17218.0,1824.0,16991.773068164486
27.977424383163452,13024.0,-216.0,11364.0,-2712.0,-15286.0,1789.0,17286.171583089184
27.998136281967163,13264.0,528.0,10636.0,-1603.0,-17586.0,1009.0,17009.90817141586
28.01848554611206,13964.0,96.0,10604.0,-816.0,-17523.0,136.0,17534.1760000292
28.03834581375122,14668.0,292.0,9476.0,-852.0,-16804.0,-1454.0,17465.109905179525
28.061681032180786,15180.0,400.0,9364.0,-729.0,-20812.0,-3633.0,17840.316589119153
28.088584423065186,16652.0,564.0,8916.0,443.0,-20304.0,-6380.0,18897.1494146604
28.114820957183838,16900.0,816.0,7052.0,924.0,-19846.0,-9037.0,18330.481717619972
28.141484022140503,16832.0,1068.0,5912.0,483.0,-20848.0,-11018.0,17872.00581915751
28.168815851211548,16828.0,1952.0,4324.0,-1669.0,-23128.0,-12309.0,17483.960192130387
28.19366455078125,16716.0,2752.0,2880.0,-4980.0,-23214.0,-12610.0,17184.078677659738
28.22000527381897,16464.0,3248.0,1864.0,-6981.0,-20446.0,-13357.0,16884.52830256149
28.24620532989502,16380.0,3924.0,1236.0,-7739.0,-21109.0,-14204.0,16888.749864924874
28.271145820617676,15256.0,3636.0,-32.0,-8935.0,-19572.0,-14116.0,15683.336889833106
28.29751944541931,15040.0,4652.0,-1032.0,-9293.0,-16534.0,-13499.0,15776.809816943349
28.322012186050415,14748.0,5960.0,-2068.0,-8495.0,-12219.0,-13523.0,16040.627419150413
28.348484754562378,15112.0,7460.0,-1968.0,-6961.0,-9068.0,-14979.0,16967.532761129416
28.374057054519653,14920.0,8424.0,-2360.0,-6311.0,-11631.0,-16617.0,17295.65772094256
28.399508714675903,14384.0,8280.0,-2436.0,-5807.0,-10495.0,-17342.0,16774.741488321066
28.4241886138916,14384.0,8864.0,-2456.0,-4536.0,-8242.0,-17110.0,17073.426369654102
28.448180675506592,13216.0,10000.0,-3372.0,-3886.0,-6601.0,-15805.0,16912.5113451551
28.47263789176941,12832.0,11148.0,-3536.0,-2862.0,-4052.0,-14646.0,17362.068540355438
28.496985912322998,11600.0,10276.0,-3084.0,-2651.0,-11566.0,-13546.0,15800.86174865156
28.52105975151062,12044.0,12040.0,-2700.0,-2481.0,-7670.0,-13990.0,17242.666151149595
28.545461654663086,12396.0,12636.0,-3372.0,-2337.0,-5749.0,-12882.0,18019.425518034695
28.57147455215454,11964.0,12720.0,-4120.0,-2071.0,-1912.0,-8928.0,17941.85319302329
28.599218368530273,11924.0,12892.0,-3404.0,-2126.0,711.0,-5228.0,17887.779515635808
28.62458324432373,11724.0,12708.0,-2252.0,-1449.0,3754.0,-3746.0,17436.08166991655
28.64901304244995,11284.0,12440.0,-1672.0,-543.0,645.0,-3532.0,16878.32456140123
28.672584533691406,10504.0,12716.0,-2132.0,-1219.0,-2341.0,-2960.0,16630.577139714664
28.696286916732788,10124.0,12536.0,-2864.0,-1052.0,-328.0,-3203.0,16366.09812997588
28.720240592956543,11152.0,13984.0,-3408.0,831.0,3534.0,-4812.0,18208.070298634066
28.743860483169556,12492.0,14048.0,-2996.0,2741.0,9859.0,-5004.0,19036.081109303985
28.76779580116272,12396.0,13232.0,-2228.0,4336.0,24449.0,-2135.0,18267.74819182704
28.79151701927185,10900.0,12120.0,-1544.0,4653.0,30646.0,1708.0,16373.403311468266
28.815901279449463,9772.0,11936.0,-772.0,1982.0,21980.0,4537.0,15445.260243841798
28.840235471725464,9828.0,12992.0,-1280.0,-1805.0,23099.0,5999.0,16340.74808569057
28.864104986190796,11528.0,12280.0,-848.0,-2633.0,32767.0,7373.0,16864.527505981303
28.888442277908325,11540.0,12024.0,336.0,-1152.0,32767.0,8883.0,16669.165306037372
28.913021564483643,10380.0,12744.0,768.0,-1232.0,32767.0,9098.0,16454.293056828665
28.93799376487732,9284.0,11996.0,1444.0,-3474.0,32767.0,8423.0,15237.51318293113
28.96271014213562,7796.0,9104.0,2616.0,-6820.0,32767.0,6685.0,12268.002608411853
28.98708486557007,6900.0,6756.0,5548.0,-7474.0,28684.0,4632.0,11137.048082862892
29.012042760849,6836.0,6660.0,7028.0,-6677.0,20637.0,2263.0,11852.395538455507
29.036815881729126,8152.0,8240.0,8860.0,-5020.0,25631.0,-317.0,14589.458660279346
29.0615177154541,8332.0,10736.0,11652.0,-2743.0,30197.0,-1139.0,17901.201747368807
29.087060689926147,8092.0,12028.0,12676.0,-1214.0,24153.0,-530.0,19257.056472888064
29.112952947616577,7104.0,11064.0,13612.0,-1405.0,17236.0,124.0,18925.25973401686
29.142746925354004,6660.0,10332.0,13196.0,-4363.0,16008.0,503.0,18034.418205198635
29.168832778930664,5332.0,9384.0,15120.0,-6624.0,17706.0,682.0,18576.97714914889
29.195462703704834,4904.0,10576.0,14192.0,-8137.0,19938.0,-30.0,18366.106174145894
29.22044587135315,4148.0,10432.0,14568.0,-8733.0,17316.0,-807.0,18391.822965655145
29.245481491088867,3752.0,10048.0,14744.0,-8987.0,16710.0,-1016.0,18232.535314651115
29.269756078720093,3220.0,9828.0,13400.0,-8274.0,16366.0,-946.0,16926.84211540948
29.292866706848145,2368.0,9012.0,13984.0,-7644.0,18256.0,-1183.0,16804.04189473473
29.318984031677246,1804.0,8900.0,13532.0,-6403.0,17919.0,-1241.0,16296.608236071701
29.344006061553955,872.0,8520.0,13268.0,-6657.0,13342.0,-2019.0,15792.105876038193
29.36882734298706,712.0,8544.0,13724.0,-7571.0,9023.0,-1449.0,16181.936101715393
29.39348006248474,780.0,9620.0,14580.0,-7838.0,11821.0,-2049.0,17485.113668489546
29.41867184638977,-564.0,8352.0,14604.0,-8066.0,11973.0,-1826.0,16833.027535176196
29.443135261535645,-1788.0,7224.0,15380.0,-9236.0,13448.0,-1832.0,17085.88657342662
29.468316078186035,-2468.0,6296.0,15080.0,-10716.0,13076.0,-1935.0,16526.85814061463
29.49570369720459,-3712.0,5584.0,15452.0,-12533.0,11079.0,-1469.0,16844.117786337163
29.520630836486816,-4024.0,4652.0,15652.0,-12980.0,7905.0,-830.0,16817.216892220902
29.54483723640442,-3300.0,4304.0,15752.0,-12479.0,8667.0,29.0,16659.52940511826
29.56936764717102,-4120.0,3216.0,15052.0,-12429.0,8896.0,880.0,15933.604739668925
29.5948326587677,-4528.0,3064.0,14832.0,-11644.0,8560.0,1624.0,15807.564771336538
29.621084690093994,-3792.0,3872.0,14764.0,-10243.0,9496.0,1527.0,15727.28024802763
29.64642882347107,-4916.0,3520.0,14676.0,-9262.0,5935.0,1834.0,15872.694541255432
29.67062258720398,-5216.0,2524.0,15008.0,-8383.0,4134.0,2610.0,16087.799600939838
29.694934606552124,-5568.0,2724.0,16260.0,-6490.0,6888.0,2966.0,17401.44821559401
29.71872615814209,-5836.0,3500.0,15320.0,-6259.0,7219.0,3171.0,16763.391542286423
29.742295026779175,-6592.0,2768.0,15504.0,-6715.0,3025.0,2715.0,17073.08712564895
29.766624689102173,-6560.0,2248.0,15472.0,-6698.0,4393.0,2734.0,16954.936980124698
29.791876792907715,-6448.0,1924.0,14784.0,-6805.0,5084.0,3010.0,16243.310500018153
29.81629753112793,-6412.0,1308.0,14844.0,-6452.0,4185.0,3031.0,16222.48267066419
29.841052532196045,-6628.0,804.0,14796.0,-6153.0,5643.0,3334.0,16232.634290219194
29.866496324539185,-7216.0,644.0,13100.0,-6294.0,5172.0,3509.0,14969.816030933713
29.890671014785767,-6616.0,252.0,12584.0,-5291.0,1808.0,3783.0,14219.423898315994
29.915228843688965,-6352.0,548.0,13404.0,-1772.0,3000.0,3622.0,14843.02610655927
29.93933415412903,-7072.0,480.0,13436.0,1335.0,5787.0,3328.0,15191.105292242562
29.96394371986389,-8152.0,436.0,13816.0,1261.0,5014.0,2692.0,16047.649547519411
29.982675790786743,-8132.0,1196.0,15148.0,-973.0,3507.0,2451.0,17234.31878549309
30.007925987243652,-8312.0,1448.0,15128.0,-3553.0,3884.0,2223.0,17321.73293871026
30.034639835357666,-8224.0,1684.0,14540.0,-5488.0,3696.0,2041.0,16789.330897924432
30.060312032699585,-8128.0,1508.0,14272.0,-6192.0,3108.0,1800.0,16493.28445155785
30.08464002609253,-8404.0,956.0,13560.0,-5555.0,4753.0,2050.0,15981.70053529974
30.110584497451782,-8340.0,280.0,13024.0,-5478.0,2454.0,2282.0,15467.985518483007
30.137489557266235,-8624.0,-112.0,13196.0,-5096.0,1115.0,2867.0,15764.527775991262
30.162160396575928,-9084.0,-40.0,12884.0,-4445.0,586.0,3529.0,15764.457237723092
30.18702459335327,-8568.0,380.0,12784.0,-3285.0,419.0,3652.0,15394.339219336438
30.212079286575317,-8720.0,580.0,13100.0,-1875.0,-671.0,3569.0,15747.53314014611
30.23774790763855,-8072.0,1140.0,13384.0,-592.0,2061.0,2877.0,15671.25521456402
30.262889623641968,-8896.0,976.0,13340.0,95.0,948.0,2119.0,16063.841134672615
30.287157773971558,-8752.0,1292.0,13700.0,67.0,139.0,1704.0,16308.181014447933
30.31284475326538,-9236.0,1128.0,14256.0,274.0,241.0,1222.0,17023.795581479473
30.337192058563232,-9004.0,900.0,13736.0,7.0,448.0,1145.0,16448.699401472444
30.36165189743042,-9116.0,1096.0,14008.0,-969.0,-1574.0,1032.0,16748.932383886444
30.386385679244995,-8992.0,1008.0,14240.0,-975.0,-1670.0,1362.0,16871.56566534357
30.41103982925415,-8800.0,956.0,14096.0,-544.0,-911.0,1366.0,16644.85361906196
30.43510341644287,-8912.0,1024.0,13792.0,-295.0,-59.0,1271.0,16452.707497551884
30.459606170654297,-8764.0,1420.0,13824.0,-587.0,-420.0,1044.0,16429.457446915283
30.484825134277344,-8624.0,1440.0,13688.0,-577.0,806.0,821.0,16242.177193960175
30.509174585342407,-8348.0,1476.0,13224.0,-940.0,606.0,501.0,15708.018843889893
