time_seconds,ax,ay,az,gx,gy,gz,motion_magnitude
0.0967557430267334,-1060.0,60.0,16424.0,-619.0,-85.0,-234.0,16458.279861516512
0.15895771980285645,-1120.0,16.0,16384.0,-624.0,-61.0,-242.0,16422.244426387035
0.18779397010803223,-1220.0,16.0,16328.0,-617.0,-62.0,-227.0,16373.522528765763
0.21500110626220703,-1200.0,-12.0,16348.0,-614.0,-54.0,-216.0,16391.987310878445
0.24286413192749023,-1168.0,-40.0,16344.0,-596.0,-80.0,-222.0,16385.73037737409
0.26996684074401855,-1252.0,64.0,16396.0,-617.0,-64.0,-239.0,16443.856481981347
0.29875659942626953,-1156.0,84.0,16332.0,-611.0,-64.0,-222.0,16373.075948031268
0.32707929611206055,-1260.0,48.0,16208.0,-599.0,-66.0,-221.0,16256.972903957243
0.35253214836120605,-1156.0,52.0,16464.0,-589.0,-67.0,-244.0,16504.615596856536
0.37526822090148926,-1264.0,12.0,16272.0,-635.0,-71.0,-234.0,16321.023987483139
0.39841461181640625,-1172.0,0.0,16396.0,-617.0,-61.0,-242.0,16437.83440724477
0.4219341278076172,-1260.0,-44.0,16340.0,-601.0,-65.0,-232.0,16388.56723450833
0.44536447525024414,-1164.0,20.0,16440.0,-611.0,-84.0,-214.0,16481.167919780444
0.4699704647064209,-1176.0,-4.0,16332.0,-629.0,-75.0,-209.0,16374.285205773105
0.49400925636291504,-1208.0,-12.0,16304.0,-624.0,-72.0,-237.0,16348.694871456864
0.5188374519348145,-1160.0,-112.0,16524.0,-600.0,-76.0,-221.0,16565.045125202647
0.5415287017822266,-1168.0,-40.0,16396.0,-627.0,-41.0,-230.0,16437.598364724698
0.5629510879516602,-1084.0,-24.0,16316.0,-625.0,-105.0,-224.0,16351.987279838497
0.585352897644043,-1124.0,12.0,16344.0,-655.0,-27.0,-241.0,16382.608339333514
0.6093366146087646,-1140.0,-16.0,16300.0,-618.0,-66.0,-225.0,16339.824234060781
0.6327018737792969,-1116.0,-16.0,16324.0,-627.0,-69.0,-247.0,16362.111355201076
0.6562020778656006,-1156.0,20.0,16352.0,-599.0,-77.0,-213.0,16392.82281975865
0.6793181896209717,-1128.0,-64.0,16332.0,-630.0,-54.0,-231.0,16371.032465913688
0.7038233280181885,-1168.0,8.0,16292.0,-622.0,-74.0,-241.0,16333.816210549205
0.727496862411499,-1124.0,8.0,16432.0,-614.0,-55.0,-211.0,16470.39963085292
0.7511625289916992,-1220.0,12.0,16408.0,-614.0,-44.0,-220.0,16453.29778494269
0.7742342948913574,-1148.0,112.0,16332.0,-638.0,-71.0,-229.0,16372.68066017291
0.798717737197876,-1184.0,-8.0,16240.0,-617.0,-56.0,-234.0,16283.105354937676
0.8224847316741943,-1208.0,20.0,16352.0,-614.0,-72.0,-251.0,16396.571836820036
0.8465073108673096,-1048.0,132.0,16232.0,-620.0,-63.0,-212.0,16266.331854477825
0.8708343505859375,-1148.0,-16.0,16360.0,-622.0,-69.0,-239.0,16400.236583659396
0.8969535827636719,-1172.0,8.0,16392.0,-620.0,-62.0,-234.0,16433.846536949284
0.9221842288970947,-1160.0,-24.0,16416.0,-592.0,-78.0,-223.0,16456.950871896046
0.9436395168304443,-1092.0,12.0,16448.0,-604.0,-48.0,-236.0,16484.21402433249
0.9655680656433105,-1124.0,-64.0,16280.0,-609.0,-70.0,-238.0,16318.880843979467
0.9875433444976807,-1200.0,92.0,16472.0,-623.0,-84.0,-226.0,16515.908936537522
1.0100181102752686,-1164.0,20.0,16348.0,-594.0,-62.0,-219.0,16389.39901277652
1.0340278148651123,-1080.0,32.0,16340.0,-621.0,-59.0,-235.0,16375.683924648765
1.0576176643371582,-1168.0,-44.0,16444.0,-597.0,-47.0,-223.0,16485.487435923755
1.0804479122161865,-1184.0,96.0,16416.0,-636.0,-91.0,-228.0,16458.922443465126
1.1024315357208252,-1196.0,44.0,16392.0,-611.0,-79.0,-220.0,16435.632509885345
1.1250615119934082,-1164.0,-32.0,16428.0,-625.0,-90.0,-235.0,16469.21686055533
1.1489171981811523,-1220.0,-44.0,16384.0,-599.0,-78.0,-217.0,16429.418492448232
1.1727843284606934,-1236.0,76.0,16300.0,-605.0,-84.0,-239.0,16346.971340281967
1.1952762603759766,-1212.0,-36.0,16416.0,-604.0,-108.0,-236.0,16460.71978985123
1.218656063079834,-1212.0,116.0,16332.0,-597.0,-91.0,-237.0,16377.320415745673
1.2422804832458496,-1184.0,68.0,16308.0,-579.0,-70.0,-233.0,16351.065531028857
1.2654304504394531,-1144.0,-88.0,16392.0,-612.0,-58.0,-236.0,16432.107107732714
1.288285493850708,-1200.0,-52.0,16452.0,-638.0,-67.0,-242.0,16495.78758350143
1.3116259574890137,-1228.0,0.0,16304.0,-632.0,-86.0,-209.0,16350.180427139023
1.3348886966705322,-1264.0,68.0,16436.0,-612.0,-63.0,-236.0,16484.672153245876
1.3580405712127686,-1176.0,-8.0,16424.0,-596.0,-69.0,-217.0,16466.05040682191
1.3808979988098145,-1148.0,-56.0,16460.0,-602.0,-60.0,-230.0,16500.07999980606
1.4037578105926514,-1104.0,60.0,16340.0,-614.0,-85.0,-243.0,16377.362913485187
1.4273085594177246,-1124.0,-16.0,16268.0,-610.0,-102.0,-248.0,16306.791713884126
1.450380563735962,-1132.0,20.0,16516.0,-636.0,-76.0,-246.0,16554.76004054423
1.473356008529663,-1140.0,56.0,16300.0,-617.0,-84.0,-227.0,16339.912362066083
1.4976022243499756,-1156.0,32.0,16344.0,-621.0,-60.0,-210.0,16384.8617937412
1.5217347145080566,-1060.0,80.0,16384.0,-630.0,-84.0,-252.0,16418.44864778643
1.5445880889892578,-1196.0,-36.0,16464.0,-614.0,-62.0,-242.0,16507.422815206497
1.5695466995239258,-1068.0,-4.0,16352.0,-624.0,-63.0,-227.0,16386.840574070404
1.5930421352386475,-1248.0,20.0,16476.0,-638.0,-53.0,-203.0,16523.21034181917
1.6162176132202148,-1124.0,52.0,16436.0,-636.0,-71.0,-240.0,16474.470431549536
1.6403186321258545,-1212.0,100.0,16388.0,-622.0,-58.0,-241.0,16433.06082262218
1.6646506786346436,-1220.0,-68.0,16360.0,-622.0,-62.0,-244.0,16405.56686006308
1.689056396484375,-1148.0,36.0,16272.0,-622.0,-70.0,-227.0,16312.485524897793
1.712956190109253,-1120.0,-52.0,16356.0,-614.0,-74.0,-230.0,16394.384404423363
1.7375109195709229,-1084.0,0.0,16424.0,-622.0,-48.0,-241.0,16459.733655196247
1.7606120109558105,-1184.0,48.0,16308.0,-633.0,-61.0,-246.0,16350.994587486108
1.7842209339141846,-1092.0,72.0,16348.0,-590.0,-87.0,-238.0,16384.588856605467
1.8079876899719238,-1220.0,-44.0,16308.0,-624.0,-67.0,-225.0,16353.629566551885
1.8316020965576172,-1172.0,0.0,16328.0,-618.0,-55.0,-204.0,16370.008185703513
1.854421615600586,-1124.0,40.0,16520.0,-615.0,-97.0,-238.0,16558.241935664548
1.878371238708496,-1120.0,-40.0,16336.0,-604.0,-61.0,-236.0,16374.397576704921
1.9025161266326904,-1240.0,-36.0,16372.0,-587.0,-95.0,-224.0,16418.93053764465
1.9265589714050293,-1148.0,20.0,16392.0,-639.0,-37.0,-249.0,16432.16260873778
1.950554609298706,-1164.0,44.0,16372.0,-636.0,-61.0,-248.0,16413.38526934648
1.9747602939605713,-1180.0,32.0,16268.0,-609.0,-82.0,-212.0,16310.770919855382
1.9993200302124023,-1200.0,4.0,16284.0,-610.0,-67.0,-229.0,16328.155805234099
2.0228588581085205,-1168.0,92.0,16372.0,-603.0,-72.0,-213.0,16413.868282644406
2.0472373962402344,-1280.0,68.0,16332.0,-615.0,-63.0,-213.0,16382.223536504438
2.072277307510376,-1172.0,-12.0,16464.0,-636.0,-73.0,-233.0,16505.666420959802
2.097325563430786,-1180.0,52.0,16396.0,-616.0,-68.0,-256.0,16438.488981655217
2.122380495071411,-1076.0,24.0,16400.0,-645.0,-54.0,-244.0,16435.27766726197
2.146840810775757,-1136.0,-28.0,16452.0,-590.0,-66.0,-233.0,16491.19716697366
2.169351100921631,-1152.0,8.0,16348.0,-616.0,-50.0,-247.0,16388.540874647748
2.191018581390381,-1112.0,20.0,16428.0,-621.0,-62.0,-233.0,16465.604392186764
2.213454246520996,-1184.0,0.0,16492.0,-600.0,-24.0,-252.0,16534.446467904512
2.2361562252044678,-1164.0,36.0,16416.0,-616.0,-91.0,-244.0,16457.25517818813
2.2591075897216797,-1148.0,-88.0,16244.0,-609.0,-70.0,-221.0,16284.753114493324
2.281186580657959,-1064.0,24.0,16352.0,-608.0,-57.0,-241.0,16386.59745035558
2.3043081760406494,-1108.0,-64.0,16348.0,-623.0,-58.0,-248.0,16385.62980175007
2.3262124061584473,-1108.0,12.0,16512.0,-612.0,-112.0,-231.0,16549.13750018411
2.3485889434814453,-1272.0,48.0,16536.0,-596.0,-53.0,-255.0,16584.920379670202
2.370678186416626,-1128.0,-28.0,16436.0,-616.0,-80.0,-258.0,16474.685550868642
2.3935110569000244,-1160.0,-56.0,16380.0,-629.0,15.0,-231.0,16421.118597708257
2.416430711746216,-1132.0,-64.0,16392.0,-668.0,47.0,-226.0,16431.16502260263
2.440042018890381,-1144.0,-16.0,16316.0,-631.0,-22.0,-226.0,16356.064563335522
2.4626121520996094,-1096.0,56.0,16324.0,-642.0,-53.0,-237.0,16360.847410815859
2.4852352142333984,-1164.0,20.0,16540.0,-623.0,-67.0,-217.0,16580.91963673909
2.507341146469116,-1044.0,132.0,16340.0,-601.0,-69.0,-230.0,16373.849883274244
2.5315072536468506,-1132.0,-40.0,16504.0,-611.0,-81.0,-219.0,16542.8244263185
2.554481029510498,-1160.0,-76.0,16316.0,-611.0,-80.0,-231.0,16357.360178219467
2.5776243209838867,-1144.0,12.0,16384.0,-608.0,-83.0,-239.0,16423.89527487313
2.600907325744629,-1176.0,44.0,16496.0,-627.0,-100.0,-228.0,16537.923932585974
2.6238152980804443,-1148.0,-12.0,16404.0,-660.0,-70.0,-246.0,16444.12551642683
2.648003339767456,-1188.0,-12.0,16404.0,-624.0,-73.0,-223.0,16446.966407213215
2.6712639331817627,-1028.0,36.0,16368.0,-654.0,-40.0,-236.0,16400.289753537894
2.694232225418091,-1132.0,20.0,16408.0,-617.0,-68.0,-224.0,16447.01456191974
2.7173497676849365,-1208.0,-60.0,16368.0,-593.0,-92.0,-222.0,16412.625871566073
2.7404847145080566,-1156.0,-16.0,16200.0,-617.0,-42.0,-228.0,16241.200448242735
2.764472484588623,-1184.0,84.0,16296.0,-620.0,-59.0,-224.0,16339.171582427305
2.7874879837036133,-1164.0,-28.0,16344.0,-635.0,-51.0,-221.0,16385.420836829308
2.81109356880188,-1152.0,-28.0,16412.0,-649.0,-49.0,-237.0,16452.405052149672
2.834181308746338,-1152.0,-48.0,16432.0,-633.0,5.0,-234.0,16472.40213205105
2.8576667308807373,-1088.0,-100.0,16220.0,-620.0,-44.0,-225.0,16256.756872143964
2.881359338760376,-1068.0,36.0,16316.0,-646.0,-61.0,-232.0,16350.956424625441
2.906019449234009,-1180.0,-112.0,16388.0,-632.0,-45.0,-245.0,16430.809109718244
2.930952787399292,-1212.0,56.0,16264.0,-615.0,-22.0,-217.0,16309.192990457866
2.9554672241210938,-1068.0,-20.0,16400.0,-606.0,-76.0,-247.0,16434.750500083657
2.9801340103149414,-1124.0,-80.0,16452.0,-602.0,-49.0,-231.0,16490.54516988447
3.004340410232544,-1172.0,4.0,16532.0,-632.0,-80.0,-231.0,16573.49160557304
3.0288610458374023,-1084.0,0.0,16388.0,-613.0,-68.0,-215.0,16423.811981388488
3.053528070449829,-1156.0,24.0,16388.0,-628.0,-75.0,-248.0,16428.738722129583
3.0783920288085938,-1156.0,116.0,16528.0,-620.0,-70.0,-236.0,16568.783178012804
3.103080987930298,-1084.0,72.0,16280.0,-621.0,-52.0,-241.0,16316.207892767241
3.1276233196258545,-1200.0,-96.0,16340.0,-630.0,-103.0,-221.0,16384.28564204128
3.152696371078491,-1200.0,-96.0,16364.0,-579.0,-72.0,-228.0,16408.220866382802
3.177619695663452,-1120.0,-4.0,16412.0,-613.0,-35.0,-233.0,16450.172035574582
3.202305316925049,-1200.0,-60.0,16376.0,-611.0,-87.0,-231.0,16420.017539576504
3.226653575897217,-1140.0,36.0,16360.0,-624.0,-53.0,-225.0,16399.71024134268
3.2511062622070312,-1168.0,-8.0,16352.0,-605.0,-77.0,-203.0,16393.663165991915
3.276262044906616,-1044.0,-48.0,16408.0,-604.0,-95.0,-228.0,16441.250074127576
3.301807403564453,-1120.0,-40.0,16460.0,-597.0,-63.0,-219.0,16498.10898254706
3.325803279876709,-1192.0,60.0,16356.0,-583.0,-95.0,-229.0,16399.48779687951
3.3494367599487305,-1140.0,12.0,16364.0,-613.0,-74.0,-237.0,16403.665444040245
3.3738090991973877,-1172.0,-4.0,16536.0,-615.0,-75.0,-253.0,16577.48159401783
3.3993148803710938,-1172.0,-44.0,16384.0,-605.0,-87.0,-252.0,16425.923900956073
3.424882173538208,-1264.0,-68.0,16328.0,-595.0,-75.0,-249.0,16376.993130608562
3.4504470825195312,-1148.0,-8.0,16340.0,-610.0,-54.0,-254.0,16380.279851089235
3.475088119506836,-1152.0,-40.0,16428.0,-607.0,-60.0,-254.0,16468.390571030308
3.5000693798065186,-1232.0,0.0,16288.0,-628.0,-54.0,-239.0,16334.526867956722
3.525580406188965,-1100.0,-32.0,16492.0,-629.0,-69.0,-229.0,16528.674720013096
3.5517053604125977,-1208.0,-40.0,16348.0,-610.0,-64.0,-246.0,16392.619314801403
3.5768020153045654,-1184.0,4.0,16460.0,-613.0,-88.0,-224.0,16502.529260692132
3.6021976470947266,-1168.0,72.0,16404.0,-650.0,-108.0,-243.0,16445.687094189772
3.6288743019104004,-1168.0,-92.0,16456.0,-634.0,-75.0,-233.0,16497.65510610523
3.6544029712677,-1128.0,-76.0,16244.0,-635.0,-112.0,-236.0,16283.294998248972
3.6798431873321533,-1096.0,-60.0,16440.0,-588.0,-99.0,-233.0,16476.602076884665
3.705031156539917,-1112.0,-8.0,16480.0,-596.0,-114.0,-228.0,16517.47583621662
3.7294280529022217,-1156.0,-48.0,16416.0,-602.0,-126.0,-247.0,16456.721909298947
3.7543742656707764,-1156.0,4.0,16376.0,-625.0,-108.0,-241.0,16416.751444789556
3.778801202774048,-1396.0,-148.0,16572.0,-579.0,-226.0,-256.0,16631.353041770235
3.80476713180542,-1232.0,-32.0,16480.0,-621.0,-70.0,-238.0,16526.017306054113
3.830214500427246,-1148.0,20.0,16400.0,-626.0,-56.0,-235.0,16440.143065070937
3.8563811779022217,-1124.0,32.0,16348.0,-623.0,-58.0,-210.0,16386.625766154542
3.8823623657226562,-1248.0,52.0,16476.0,-636.0,-35.0,-212.0,16523.2800617795
3.9084646701812744,-1192.0,60.0,16500.0,-621.0,-58.0,-237.0,16543.10926035369
3.934209108352661,-1128.0,48.0,16440.0,-660.0,-30.0,-247.0,16478.722280565322
3.960397958755493,-1160.0,60.0,16368.0,-626.0,-43.0,-220.0,16409.1628061885
3.986344575881958,-1128.0,-72.0,16376.0,-634.0,-108.0,-221.0,16414.96098076386
4.012755632400513,-1128.0,96.0,16300.0,-589.0,-166.0,-231.0,16339.2655893709
4.039067506790161,-1104.0,-36.0,16364.0,-638.0,-25.0,-236.0,16401.238002053382
4.0656890869140625,-1132.0,104.0,16364.0,-618.0,0.0,-222.0,16403.436713079365
4.091657876968384,-1156.0,-12.0,16400.0,-624.0,20.0,-241.0,16440.695849020503
4.117275953292847,-1232.0,-152.0,16428.0,-614.0,-111.0,-238.0,16474.83268503811
4.143259525299072,-1340.0,64.0,16488.0,-627.0,-57.0,-231.0,16542.485907504954
4.169733285903931,-1112.0,36.0,16472.0,-600.0,-95.0,-256.0,16509.531307702226
4.196118593215942,-1132.0,12.0,16296.0,-601.0,-80.0,-233.0,16335.274224817898
4.219652414321899,-1072.0,-64.0,16388.0,-599.0,-67.0,-241.0,16423.149028124906
4.243454456329346,-1240.0,-28.0,16352.0,-608.0,-51.0,-241.0,16398.972162913138
4.267728567123413,-1328.0,16.0,16352.0,-643.0,-13.0,-228.0,16405.844812139363
4.2914111614227295,-1096.0,-24.0,16464.0,-612.0,-89.0,-241.0,16500.457205786755
4.315319776535034,-1144.0,112.0,16424.0,-614.0,-90.0,-238.0,16464.174926184427
4.339074611663818,-1096.0,-52.0,16480.0,-627.0,-109.0,-241.0,16516.486309139727
4.362131357192993,-1108.0,-56.0,16392.0,-599.0,-93.0,-234.0,16429.499809793357
4.385444402694702,-1188.0,16.0,16400.0,-593.0,-142.0,-219.0,16442.980265146583
4.40893292427063,-972.0,52.0,16068.0,-634.0,-90.0,-239.0,16097.456693527707
4.431807041168213,-740.0,144.0,16116.0,-558.0,-326.0,-227.0,16133.623027702117
4.453706502914429,-980.0,-48.0,16288.0,-682.0,86.0,-230.0,16317.52579284004
4.47526478767395,-1176.0,72.0,16332.0,-674.0,98.0,-244.0,16374.443013427968
4.497647047042847,-1360.0,-196.0,16508.0,-572.0,-159.0,-223.0,16565.086175447443
4.51994252204895,-1328.0,40.0,16488.0,-609.0,-95.0,-228.0,16541.44274239705
4.542251348495483,-1248.0,-4.0,16436.0,-625.0,-68.0,-247.0,16483.313259172137
4.564529657363892,-1224.0,128.0,16492.0,-626.0,-86.0,-236.0,16537.854274360987
4.587604522705078,-1216.0,-104.0,16488.0,-594.0,-86.0,-239.0,16533.106665112882
4.609898805618286,-1160.0,-8.0,16352.0,-618.0,-68.0,-195.0,16393.095131792532
4.632596015930176,-1248.0,28.0,16312.0,-634.0,-65.0,-241.0,16359.695351686718
4.654628038406372,-1136.0,-52.0,16412.0,-622.0,-96.0,-230.0,16451.35082599602
4.677099943161011,-1136.0,8.0,16440.0,-607.0,-110.0,-240.0,16479.203864264804
4.698793172836304,-1068.0,-16.0,16500.0,-614.0,-151.0,-230.0,16534.535977764845
4.720961332321167,-1192.0,-8.0,16444.0,-594.0,-133.0,-221.0,16487.14844962585
4.74324631690979,-1148.0,-40.0,16480.0,-618.0,-49.0,-222.0,16519.98498788664
4.764951705932617,-1184.0,12.0,16404.0,-601.0,-80.0,-263.0,16446.67796243363
4.787381410598755,-1152.0,36.0,16436.0,-622.0,-103.0,-241.0,16476.36173431501
4.809606552124023,-1164.0,-72.0,16492.0,-598.0,-106.0,-221.0,16533.183117597167
4.8323304653167725,-1200.0,-36.0,16396.0,-623.0,-32.0,-252.0,16439.893916932677
4.855927467346191,-1224.0,12.0,16356.0,-634.0,-32.0,-228.0,16401.739419951777
4.878201723098755,-1164.0,-100.0,16440.0,-639.0,-28.0,-234.0,16481.45915870315
4.900536775588989,-1144.0,0.0,16260.0,-615.0,-20.0,-235.0,16300.194354669517
4.923369884490967,-1188.0,-16.0,16444.0,-620.0,-20.0,-221.0,16486.8655601967
4.946943759918213,-1172.0,60.0,16448.0,-637.0,-38.0,-219.0,16489.81164234449
4.969338893890381,-1100.0,68.0,16364.0,-627.0,-40.0,-241.0,16401.070696756356
4.992207765579224,-1080.0,20.0,16264.0,-677.0,60.0,-231.0,16299.831164769776
5.013733386993408,-1216.0,-44.0,16452.0,-605.0,-84.0,-236.0,16496.935957928672
5.0357372760772705,-1164.0,40.0,16328.0,-609.0,-83.0,-224.0,16369.486247283388
5.0581724643707275,-1200.0,60.0,16456.0,-610.0,-76.0,-234.0,16499.804120049426
5.080485582351685,-1104.0,12.0,16304.0,-613.0,-75.0,-240.0,16341.339479981438
5.102597951889038,-1172.0,16.0,16268.0,-596.0,-95.0,-229.0,16310.170569310427
5.124337673187256,-1204.0,52.0,16284.0,-594.0,-129.0,-224.0,16328.532573382092
5.147157430648804,-1248.0,-140.0,16412.0,-616.0,-46.0,-222.0,16459.97715672777
5.170016765594482,-1164.0,-16.0,16460.0,-603.0,-82.0,-244.0,16501.113659386752
5.192684888839722,-1132.0,-132.0,16268.0,-595.0,-88.0,-232.0,16307.87147361666
5.215094566345215,-1156.0,-4.0,16364.0,-650.0,16.0,-254.0,16404.781254256333
5.237525701522827,-1108.0,-28.0,16348.0,-576.0,-111.0,-234.0,16385.52873727302
5.2611894607543945,-1056.0,-96.0,16328.0,-603.0,-92.0,-246.0,16362.393956875625
5.283299207687378,-1268.0,108.0,16432.0,-630.0,-116.0,-222.0,16481.204810328643
5.30559515953064,-1000.0,8.0,16328.0,-606.0,-97.0,-218.0,16358.595538737425
5.327970266342163,-1168.0,-8.0,16496.0,-624.0,-18.0,-223.0,16537.3003842828
5.349672794342041,-1204.0,-28.0,16372.0,-624.0,-14.0,-250.0,16416.23537842949
5.371641397476196,-1128.0,-8.0,16124.0,-619.0,-9.0,-224.0,16163.410036251633
5.394114971160889,-1288.0,-140.0,16532.0,-625.0,3.0,-212.0,16582.688804895304
5.4164817333221436,-1296.0,36.0,16536.0,-657.0,-13.0,-217.0,16586.747963359183
5.438328504562378,-1280.0,12.0,16384.0,-630.0,-54.0,-223.0,16433.928319181632
5.460806608200073,-1120.0,-88.0,16308.0,-625.0,-14.0,-228.0,16346.651277861163
5.484344959259033,-1052.0,12.0,16300.0,-600.0,-105.0,-249.0,16333.917105213923
5.506157398223877,-1132.0,96.0,16428.0,-682.0,51.0,-227.0,16467.23486199186
5.5283286571502686,-1116.0,-36.0,16224.0,-660.0,72.0,-247.0,16262.377685935104
5.550300359725952,-1100.0,-80.0,16308.0,-574.0,-157.0,-240.0,16345.25203231813
5.572419166564941,-1152.0,140.0,16396.0,-571.0,-228.0,-218.0,16437.01676095757
5.595197677612305,-1148.0,8.0,16416.0,-645.0,50.0,-232.0,16456.093825692657
5.617650032043457,-1012.0,32.0,16208.0,-607.0,-184.0,-228.0,16239.594576220183
5.6394429206848145,-1344.0,12.0,16428.0,-566.0,-164.0,-235.0,16482.890037854406
5.6613874435424805,-1116.0,-88.0,16400.0,-628.0,30.0,-243.0,16438.162914389188
5.68335485458374,-1044.0,36.0,16416.0,-612.0,-151.0,-224.0,16449.203263380266
5.705846071243286,-1228.0,-28.0,16292.0,-640.0,-13.0,-265.0,16338.238338327666
5.728288412094116,-1176.0,-24.0,16336.0,-614.0,-105.0,-236.0,16378.291974439826
5.750332355499268,-1124.0,4.0,16428.0,-632.0,-83.0,-229.0,16466.407501334346
5.772470235824585,-1100.0,-120.0,16136.0,-642.0,-51.0,-247.0,16173.89551097694
5.795342206954956,-1148.0,-64.0,16360.0,-621.0,-40.0,-231.0,16400.353654723425
5.818062782287598,-1124.0,-4.0,16372.0,-612.0,-72.0,-229.0,16410.538565202543
5.84043550491333,-1084.0,24.0,16424.0,-591.0,-45.0,-252.0,16459.751152432407
5.862655401229858,-1196.0,40.0,16376.0,-611.0,-30.0,-224.0,16419.66479560408
5.885053873062134,-1208.0,24.0,16268.0,-640.0,-35.0,-208.0,16312.806748073735
5.907884836196899,-1192.0,28.0,16388.0,-587.0,-100.0,-222.0,16431.31741522876
5.931199789047241,-1208.0,-48.0,16544.0,-618.0,-83.0,-244.0,16588.113334553753
5.953336715698242,-1188.0,-60.0,16356.0,-615.0,-53.0,-227.0,16399.197541343296
5.9748711585998535,-1204.0,56.0,16444.0,-598.0,-91.0,-240.0,16488.113536726996
5.9969305992126465,-1012.0,-44.0,16360.0,-590.0,-116.0,-231.0,16391.329415273187
6.019452333450317,-1264.0,60.0,16456.0,-615.0,-116.0,-212.0,16504.582151632923
6.04241418838501,-996.0,-56.0,16320.0,-642.0,-78.0,-231.0,16350.460299331025
6.0645530223846436,-1156.0,28.0,16460.0,-578.0,-148.0,-221.0,16500.567262976143
6.08653450012207,-1144.0,-28.0,16376.0,-610.0,-31.0,-228.0,16415.934210394484
6.108754873275757,-1140.0,12.0,16360.0,-639.0,-43.0,-233.0,16399.6751187333
6.130644083023071,-1184.0,32.0,16260.0,-629.0,-97.0,-234.0,16303.081917232705
6.153266429901123,-1076.0,-56.0,16340.0,-624.0,-80.0,-222.0,16375.485092051471
6.175563097000122,-1164.0,72.0,16472.0,-607.0,-55.0,-214.0,16513.23299660003
6.197953224182129,-1124.0,-40.0,16308.0,-583.0,-87.0,-236.0,16346.73790087796
6.2200939655303955,-1292.0,72.0,16520.0,-582.0,-149.0,-245.0,16570.601920268316
6.2428138256073,-1192.0,-16.0,16328.0,-570.0,-83.0,-246.0,16371.460044846337
6.266397953033447,-1100.0,-72.0,16380.0,-641.0,-83.0,-246.0,16417.05162323613
6.288931608200073,-1116.0,0.0,16368.0,-630.0,-49.0,-223.0,16406.00134097276
6.311949253082275,-1164.0,16.0,16364.0,-614.0,-173.0,-235.0,16405.354247927717
6.334484100341797,-1304.0,-24.0,16576.0,-598.0,-120.0,-224.0,16627.22971513896
6.357470989227295,-1364.0,-92.0,16508.0,-654.0,30.0,-237.0,16564.510979802573
6.3794333934783936,-1108.0,-128.0,16352.0,-637.0,-72.0,-238.0,16389.99548505124
6.40176248550415,-1288.0,100.0,16444.0,-587.0,-182.0,-232.0,16494.668229461302
6.424236536026001,-1200.0,-32.0,16340.0,-623.0,-71.0,-208.0,16384.035644492476
6.446540117263794,-1116.0,-40.0,16344.0,-620.0,-107.0,-231.0,16382.10584753987
6.469531059265137,-1184.0,-44.0,16400.0,-632.0,-35.0,-210.0,16442.74283688704
6.492551803588867,-1156.0,68.0,16332.0,-635.0,-25.0,-223.0,16373.001679594368
6.516140460968018,-1156.0,40.0,16280.0,-632.0,-37.0,-231.0,16321.039672765948
6.540339946746826,-1180.0,-16.0,16288.0,-584.0,-89.0,-239.0,16330.69502501348
6.5637688636779785,-1212.0,24.0,16336.0,-634.0,-51.0,-220.0,16380.916213692079
6.587395668029785,-1120.0,36.0,16284.0,-613.0,-59.0,-249.0,16322.510591205018
6.611916780471802,-1244.0,-60.0,16388.0,-631.0,-48.0,-228.0,16435.25722342063
6.635570049285889,-1232.0,-40.0,16356.0,-640.0,-48.0,-217.0,16402.382753734288
6.6593992710113525,-1252.0,-4.0,16360.0,-615.0,-62.0,-226.0,16407.837151800355
6.684229850769043,-1316.0,24.0,16368.0,-604.0,-83.0,-233.0,16420.836032309682
6.706759214401245,-1052.0,-28.0,16276.0,-603.0,-110.0,-229.0,16309.986633961415
6.729897499084473,-1140.0,-20.0,16440.0,-582.0,-69.0,-220.0,16479.49028337952
6.752988815307617,-1164.0,8.0,16424.0,-594.0,-84.0,-250.0,16465.197721254368
6.7756359577178955,-1216.0,-52.0,16424.0,-626.0,-66.0,-213.0,16469.035673044127
6.798332452774048,-1144.0,140.0,16372.0,-617.0,-53.0,-243.0,16412.517174400764
6.821180820465088,-1268.0,-24.0,16284.0,-599.0,-108.0,-228.0,16333.311238080294
6.844078779220581,-1104.0,88.0,16268.0,-726.0,283.0,-266.0,16305.654969978974
6.867583274841309,-1056.0,92.0,16304.0,-611.0,-102.0,-244.0,16338.42146598012
6.8924643993377686,-1132.0,-56.0,16404.0,-618.0,-85.0,-233.0,16443.107248935645
6.916431665420532,-1204.0,-60.0,16336.0,-556.0,-216.0,-234.0,16380.41855387096
6.939141273498535,-1164.0,-60.0,16532.0,-615.0,-143.0,-228.0,16573.035931898536
6.963376998901367,-988.0,-52.0,16300.0,-614.0,-104.0,-226.0,16329.998407838257
6.991934776306152,-1128.0,16.0,16288.0,-593.0,-110.0,-236.0,16327.020058785987
7.017894744873047,-1080.0,24.0,16344.0,-625.0,-28.0,-232.0,16379.661534964634
7.041335344314575,-1156.0,92.0,16284.0,-616.0,-88.0,-239.0,16325.239845098755
7.064948320388794,-1180.0,-28.0,16328.0,-614.0,-23.0,-241.0,16370.606830536246
7.08744478225708,-1072.0,-84.0,16308.0,-619.0,-56.0,-223.0,16343.411638944912
7.109744548797607,-1040.0,24.0,16276.0,-579.0,-123.0,-241.0,16309.210649200653
7.132336616516113,-1124.0,-152.0,16368.0,-602.0,-124.0,-217.0,16407.251567523428
7.154981374740601,-1384.0,4.0,16536.0,-589.0,-182.0,-225.0,16593.81716182265
7.177612543106079,-1340.0,-28.0,16532.0,-581.0,-87.0,-216.0,16586.24152724179
7.200308799743652,-1172.0,40.0,16288.0,-592.0,-156.0,-225.0,16330.160072699839
7.22288179397583,-1216.0,36.0,16472.0,-626.0,-63.0,-206.0,16516.862171732257
7.245872735977173,-1244.0,-32.0,16384.0,-585.0,-116.0,-225.0,16431.190340325316
7.269320249557495,-1232.0,-40.0,16424.0,-606.0,-87.0,-254.0,16470.191255720136
7.2926411628723145,-1156.0,-100.0,16432.0,-605.0,-78.0,-235.0,16472.915953163847
7.315296411514282,-1196.0,-44.0,16368.0,-590.0,-128.0,-236.0,16411.696316956393
7.338084697723389,-1152.0,-32.0,16380.0,-663.0,-43.0,-218.0,16420.491101060285
7.361664056777954,-880.0,48.0,16124.0,-726.0,210.0,-244.0,16148.067376624362
7.385141134262085,-1148.0,-12.0,16284.0,-583.0,-100.0,-245.0,16324.420479759763
7.408106088638306,-1408.0,-124.0,16544.0,-646.0,-12.0,-236.0,16604.269812310326
7.4311912059783936,-1220.0,4.0,16316.0,-600.0,-147.0,-225.0,16361.548581964973
7.453810930252075,-1120.0,-16.0,16452.0,-644.0,-14.0,-235.0,16490.08671899575
7.477213621139526,-1112.0,36.0,16272.0,-630.0,-27.0,-239.0,16309.991538930975
7.499948501586914,-1344.0,-16.0,16352.0,-595.0,-102.0,-233.0,16407.147710677807
7.52443790435791,-1304.0,-56.0,16492.0,-584.0,-143.0,-220.0,16543.567209039287
7.549298048019409,-1068.0,0.0,16304.0,-609.0,-55.0,-221.0,16338.942438236325
7.57369589805603,-1136.0,0.0,16208.0,-530.0,-314.0,-217.0,16247.761691999302
7.597578048706055,-1296.0,-12.0,16476.0,-598.0,-209.0,-256.0,16526.897349472467
7.621392488479614,-1148.0,56.0,16492.0,-626.0,-65.0,-225.0,16532.002419549786
7.645246505737305,-1132.0,24.0,16484.0,-603.0,-90.0,-254.0,16522.8404337753
7.668708801269531,-1140.0,0.0,16320.0,-612.0,-70.0,-240.0,16359.767724512472
7.692647933959961,-1112.0,52.0,16320.0,-651.0,49.0,-251.0,16357.923095552198
7.715372562408447,-1212.0,-64.0,16440.0,-674.0,135.0,-250.0,16484.739609711763
7.737426996231079,-1216.0,-36.0,16452.0,-667.0,41.0,-250.0,16496.91656037576
7.764411926269531,-1188.0,-20.0,16460.0,-610.0,-20.0,-245.0,16502.828363647244
7.787708520889282,-1140.0,-48.0,16368.0,-639.0,-81.0,-212.0,16407.721596857988
7.811981678009033,-1116.0,4.0,16352.0,-657.0,90.0,-258.0,16390.038926128273
7.836009740829468,-1144.0,24.0,16340.0,-611.0,-41.0,-241.0,16380.015628808173
7.860243797302246,-1168.0,8.0,16420.0,-619.0,-22.0,-222.0,16461.491062476693
7.88381028175354,-1252.0,-48.0,16436.0,-609.0,-97.0,-245.0,16483.6859955533
7.90856409072876,-1132.0,80.0,16260.0,-563.0,-173.0,-203.0,16299.552877303107
7.932642459869385,-1200.0,-4.0,16360.0,-571.0,-215.0,-222.0,16403.95123133448
7.956469297409058,-1036.0,-72.0,16300.0,-638.0,10.0,-231.0,16333.048705002995
7.980373859405518,-1112.0,48.0,16264.0,-641.0,-26.0,-237.0,16302.041099199818
8.003543853759766,-1084.0,-40.0,16392.0,-593.0,-57.0,-221.0,16427.851959401145
8.026211023330688,-1200.0,80.0,16472.0,-647.0,14.0,-226.0,16515.846451211637
8.050600051879883,-1116.0,-124.0,16536.0,-670.0,13.0,-237.0,16574.080004633743
8.074455499649048,-1224.0,36.0,16468.0,-627.0,-25.0,-237.0,16513.464082378356
8.097948551177979,-1132.0,-84.0,16316.0,-619.0,-89.0,-250.0,16355.437505612621
8.121966361999512,-1232.0,40.0,16496.0,-584.0,-140.0,-227.0,16541.990206743565
8.14553165435791,-1176.0,32.0,16348.0,-589.0,-172.0,-234.0,16390.274677381098
8.169232606887817,-1156.0,28.0,16308.0,-605.0,-57.0,-214.0,16348.944430757601
8.193270444869995,-1176.0,0.0,16312.0,-688.0,58.0,-242.0,16354.336427993647
8.216672897338867,-1480.0,20.0,16564.0,-500.0,-411.0,-228.0,16629.999879735416
8.240720748901367,-1048.0,-28.0,16380.0,-593.0,-195.0,-212.0,16413.515406517887
8.264452457427979,-1160.0,-28.0,16452.0,-628.0,-28.0,-228.0,16492.867791866884
8.288374423980713,-1104.0,8.0,16276.0,-618.0,-54.0,-223.0,16313.401116873207
8.31248426437378,-1104.0,-12.0,16304.0,-626.0,-96.0,-224.0,16341.339479981438
8.336503028869629,-1116.0,-16.0,16504.0,-623.0,-67.0,-264.0,16541.696648167625
8.359021663665771,-1224.0,92.0,16356.0,-631.0,-78.0,-209.0,16401.99304962662
8.381325006484985,-1152.0,-8.0,16372.0,-609.0,-75.0,-220.0,16412.481591764237
8.403934240341187,-1212.0,-4.0,16364.0,-634.0,-22.0,-232.0,16408.822504981887
8.426604986190796,-1196.0,20.0,16332.0,-607.0,-74.0,-210.0,16375.745479214069
8.449127435684204,-956.0,-72.0,16292.0,-602.0,-82.0,-228.0,16320.183332303593
8.47140908241272,-1168.0,-56.0,16296.0,-609.0,-146.0,-239.0,16337.899987452487
8.494291067123413,-1240.0,32.0,16340.0,-596.0,-96.0,-236.0,16387.01388295012
8.518414735794067,-1180.0,44.0,16408.0,-609.0,-111.0,-230.0,16450.434644713798
8.542297840118408,-1160.0,24.0,16388.0,-606.0,-88.0,-223.0,16429.020664665317
8.566003561019897,-1228.0,-80.0,16304.0,-617.0,-67.0,-239.0,16350.376142462288
8.589855670928955,-1072.0,84.0,16504.0,-597.0,-114.0,-212.0,16538.991988630987
8.614510774612427,-1156.0,-112.0,16452.0,-602.0,-65.0,-225.0,16492.943460765273
8.63859510421753,-1140.0,-4.0,16428.0,-617.0,-87.0,-223.0,16467.507400939583
8.662442207336426,-1164.0,16.0,16472.0,-591.0,-106.0,-227.0,16513.08378226187
8.685173511505127,-1132.0,-88.0,16396.0,-634.0,-54.0,-226.0,16435.266471828196
8.708921194076538,-1152.0,56.0,16452.0,-630.0,-83.0,-238.0,16492.378360927814
8.731861114501953,-1204.0,-28.0,16452.0,-604.0,-74.0,-234.0,16496.020853527072
8.75530743598938,-1248.0,12.0,16336.0,-622.0,-79.0,-238.0,16383.605952292675
8.779032707214355,-1136.0,-16.0,16448.0,-621.0,-70.0,-228.0,16487.19066427025
8.802579879760742,-1184.0,-56.0,16340.0,-605.0,-71.0,-240.0,16382.936000607462
8.830484628677368,-1212.0,36.0,16384.0,-582.0,-87.0,-226.0,16428.806895206966
8.854275941848755,-1188.0,4.0,16396.0,-614.0,-73.0,-239.0,16438.983423557554
8.878148794174194,-1188.0,-4.0,16380.0,-629.0,-51.0,-247.0,16423.02529986482
8.901214361190796,-1116.0,48.0,16428.0,-620.0,-62.0,-237.0,16465.932831151717
8.9241361618042,-1216.0,0.0,16408.0,-631.0,-56.0,-222.0,16452.99729532586
8.94716191291809,-1216.0,-36.0,16556.0,-625.0,-67.0,-223.0,16600.635168571112
8.96950650215149,-1180.0,-104.0,16468.0,-604.0,-108.0,-241.0,16510.54935488217
8.991511821746826,-1112.0,44.0,16320.0,-597.0,-112.0,-243.0,16357.899620672575
9.014170169830322,-1200.0,0.0,16380.0,-591.0,-121.0,-242.0,16423.897223253683
9.036009788513184,-1128.0,68.0,16412.0,-593.0,-116.0,-232.0,16450.858700991874
9.059362411499023,-1200.0,-28.0,16412.0,-621.0,-91.0,-237.0,16455.835682213165
9.082560300827026,-1068.0,-80.0,16248.0,-609.0,-85.0,-237.0,16283.259133232512
9.105111598968506,-1156.0,-32.0,16252.0,-614.0,-102.0,-232.0,16293.092524134268
9.127792119979858,-1180.0,-120.0,16424.0,-624.0,-141.0,-235.0,16466.771875507355
9.150879621505737,-1172.0,-104.0,16268.0,-583.0,-139.0,-228.0,16310.494290486724
9.174052238464355,-1288.0,36.0,16520.0,-590.0,-125.0,-232.0,16570.173203681366
9.19828200340271,-1272.0,28.0,16412.0,-656.0,66.0,-240.0,16461.242723439806
9.220935106277466,-1224.0,36.0,16392.0,-647.0,6.0,-235.0,16437.67428804939
9.244291067123413,-1140.0,40.0,16280.0,-633.0,-79.0,-256.0,16319.914215460816
9.267116785049438,-1140.0,64.0,16288.0,-618.0,-29.0,-244.0,16327.971092576077
9.28982424736023,-1188.0,44.0,16348.0,-622.0,-95.0,-244.0,16391.167865652526
9.311267375946045,-1140.0,56.0,16412.0,-619.0,-58.0,-229.0,16451.64064766794
9.333093643188477,-1248.0,-12.0,16416.0,-620.0,-44.0,-241.0,16463.37462369122
9.35479998588562,-1152.0,-44.0,16372.0,-626.0,-56.0,-220.0,16412.53862143209
9.378623485565186,-1160.0,4.0,16340.0,-623.0,-71.0,-243.0,16381.123770974933
9.401386022567749,-1192.0,52.0,16292.0,-634.0,-77.0,-225.0,16335.630749989423
9.42464303970337,-1172.0,-36.0,16368.0,-593.0,-99.0,-228.0,16409.945277178715
9.44703221321106,-1184.0,32.0,16460.0,-583.0,-121.0,-226.0,16502.559801436866
9.470649003982544,-1328.0,-28.0,16480.0,-603.0,-125.0,-215.0,16533.443924361312
9.493899822235107,-1204.0,12.0,16344.0,-599.0,-161.0,-203.0,16388.2914301644
9.516874074935913,-1296.0,96.0,16240.0,-601.0,-127.0,-222.0,16291.913085945433
9.539705276489258,-1104.0,-80.0,16360.0,-589.0,-92.0,-218.0,16397.402721162885
9.562832832336426,-1120.0,-88.0,16308.0,-629.0,-60.0,-236.0,16346.651277861163
9.585123062133789,-1212.0,24.0,16448.0,-604.0,-67.0,-237.0,16492.6111941075
9.607351303100586,-1224.0,0.0,16500.0,-632.0,-30.0,-248.0,16545.336986595346
9.629264831542969,-1148.0,28.0,16412.0,-629.0,-26.0,-212.0,16452.125455393292
9.6513671875,-1176.0,-40.0,16432.0,-610.0,-21.0,-237.0,16474.076605382168
9.673068046569824,-1192.0,-8.0,16288.0,-644.0,-19.0,-243.0,16331.560611282683
9.69487452507019,-1216.0,-108.0,16436.0,-597.0,-35.0,-256.0,16481.274707982997
9.716369152069092,-1272.0,48.0,16448.0,-616.0,-67.0,-229.0,16497.18133500387
9.738384008407593,-1212.0,56.0,16424.0,-626.0,-88.0,-236.0,16468.753929790804
9.760128736495972,-1232.0,-32.0,16440.0,-639.0,-88.0,-229.0,16486.12895739931
9.781574249267578,-1120.0,-24.0,16312.0,-618.0,-91.0,-215.0,16350.422624507295
9.8055739402771,-1168.0,-64.0,16332.0,-582.0,-97.0,-238.0,16373.837180087019
9.828971862792969,-1148.0,24.0,16436.0,-579.0,-159.0,-234.0,16476.060694231495
9.852580547332764,-1480.0,-144.0,16764.0,-604.0,-162.0,-217.0,16829.81972571305
9.877333164215088,-1308.0,-76.0,16484.0,-632.0,-46.0,-267.0,16535.987905172162
9.903002977371216,-1224.0,-60.0,16368.0,-638.0,-44.0,-240.0,16413.81125759645
9.927069902420044,-1216.0,28.0,16296.0,-625.0,-68.0,-215.0,16341.329688859472
9.951416730880737,-1136.0,88.0,16400.0,-620.0,-87.0,-227.0,16439.532840077907
9.976396083831787,-1168.0,72.0,16372.0,-600.0,-63.0,-225.0,16413.768366831548
9.999267101287842,-1172.0,28.0,16340.0,-612.0,-84.0,-222.0,16382.001342937316
10.022744178771973,-1144.0,64.0,16384.0,-616.0,-116.0,-246.0,16424.015586938538
10.046148300170898,-1196.0,-88.0,16444.0,-615.0,-75.0,-231.0,16487.671030197078
10.069817304611206,-1088.0,4.0,16372.0,-635.0,-30.0,-237.0,16408.112140036097
10.092588424682617,-1096.0,-68.0,16408.0,-624.0,-52.0,-233.0,16444.70443638316
10.115533113479614,-1108.0,-12.0,16344.0,-593.0,-55.0,-226.0,16381.518366744885
10.13869833946228,-1064.0,-36.0,16312.0,-622.0,-69.0,-227.0,16346.70413263787
10.161765336990356,-1204.0,28.0,16484.0,-603.0,-51.0,-221.0,16527.935624269598
10.185284852981567,-1136.0,0.0,16400.0,-614.0,-39.0,-239.0,16439.29730858348
10.208808660507202,-1192.0,-56.0,16436.0,-610.0,-27.0,-217.0,16479.262604861906
10.231403827667236,-1076.0,12.0,16348.0,-612.0,-79.0,-207.0,16383.376452978184
10.254491806030273,-1188.0,-140.0,16300.0,-600.0,-105.0,-227.0,16343.83504566783
10.277183532714844,-1144.0,32.0,16280.0,-600.0,-118.0,-231.0,16320.176469634143
10.300943374633789,-1068.0,52.0,16388.0,-583.0,-190.0,-216.0,16422.84603836984
10.3237464427948,-1092.0,-8.0,16312.0,-619.0,-130.0,-235.0,16348.512837564156
10.346966028213501,-1284.0,52.0,16428.0,-590.0,-120.0,-248.0,16478.183880513046
10.370178461074829,-1184.0,-24.0,16284.0,-607.0,-53.0,-239.0,16327.004869234283
10.393586874008179,-1200.0,32.0,16372.0,-616.0,-94.0,-255.0,16415.949804991487
10.416203737258911,-1168.0,76.0,16476.0,-641.0,-101.0,-240.0,16517.52330102791
10.43909239768982,-1192.0,-32.0,16384.0,-590.0,-95.0,-239.0,16427.335267778522
10.461639642715454,-1136.0,80.0,16356.0,-611.0,-81.0,-240.0,16395.597945790207
10.484674453735352,-1184.0,0.0,16216.0,-609.0,-74.0,-225.0,16259.16701433379
10.508022546768188,-1080.0,84.0,16116.0,-619.0,-77.0,-249.0,16152.365523352919
10.531770944595337,-1168.0,32.0,16360.0,-562.0,-274.0,-224.0,16401.672109879528
10.554539442062378,-1280.0,-36.0,16504.0,-579.0,-115.0,-204.0,16553.60117919965
10.577837228775024,-1164.0,72.0,16428.0,-613.0,-147.0,-243.0,16469.34315630104
10.600489139556885,-1192.0,-24.0,16404.0,-621.0,-44.0,-236.0,16447.268952625538
10.623810529708862,-1020.0,112.0,16296.0,-632.0,-35.0,-221.0,16328.274862948627
10.647052526473999,-1220.0,36.0,16320.0,-579.0,-109.0,-233.0,16365.576555685413
10.669878244400024,-1164.0,8.0,16444.0,-625.0,-36.0,-245.0,16485.147739708005
10.692627906799316,-1132.0,72.0,16472.0,-616.0,-72.0,-216.0,16511.00820664807
10.715433597564697,-1124.0,-44.0,16304.0,-635.0,-63.0,-254.0,16342.757662034886
10.738093852996826,-1208.0,-60.0,16320.0,-578.0,-129.0,-222.0,16364.756765683993
10.760576725006104,-1216.0,-64.0,16536.0,-603.0,-94.0,-204.0,16580.773443962134
10.783205509185791,-1264.0,60.0,16356.0,-616.0,-102.0,-263.0,16404.878298847572
10.806515455245972,-1192.0,-32.0,16504.0,-594.0,-100.0,-233.0,16547.021000772314
10.829842805862427,-1060.0,-12.0,16452.0,-604.0,-83.0,-244.0,16486.11682598422
10.85334300994873,-1100.0,48.0,16348.0,-620.0,-109.0,-204.0,16385.036100051777
10.876315832138062,-1040.0,-60.0,16376.0,-633.0,-108.0,-249.0,16409.10040191113
10.899341821670532,-1184.0,-44.0,16348.0,-585.0,-69.0,-224.0,16390.8784389367
10.922623872756958,-1324.0,-212.0,16344.0,-599.0,-87.0,-278.0,16398.91020769368
10.945581197738647,-1196.0,-176.0,16356.0,-588.0,-141.0,-378.0,16400.613647056016
10.96866226196289,-1248.0,-64.0,16488.0,-592.0,-107.0,-480.0,16535.28784146197
10.991319179534912,-1140.0,-48.0,16520.0,-559.0,-82.0,-555.0,16559.356992347257
11.013441562652588,-1104.0,-40.0,16320.0,-583.0,-32.0,-611.0,16357.347462226264
11.036710023880005,-1104.0,24.0,16412.0,-602.0,-66.0,-560.0,16449.10745298966
11.059937477111816,-1252.0,144.0,16392.0,-590.0,-61.0,-564.0,16440.37420498694
11.08296275138855,-1192.0,76.0,16392.0,-558.0,-35.0,-538.0,16435.45874017516
11.106031656265259,-1164.0,52.0,16260.0,-598.0,-50.0,-486.0,16301.693163595
11.128899812698364,-1104.0,108.0,16504.0,-606.0,-33.0,-460.0,16541.23622949627
11.153181314468384,-1180.0,124.0,16464.0,-582.0,-18.0,-449.0,16506.697792108513
11.17756724357605,-1244.0,132.0,16312.0,-615.0,-79.0,-383.0,16359.899266193543
11.201892852783203,-1216.0,32.0,16328.0,-613.0,-52.0,-361.0,16373.248425404166
11.225598573684692,-1148.0,56.0,16344.0,-594.0,-64.0,-342.0,16384.363765493003
11.24955153465271,-1088.0,120.0,16420.0,-629.0,-52.0,-294.0,16456.44384428179
11.274273157119751,-1244.0,120.0,16244.0,-635.0,-27.0,-274.0,16292.006383499855
11.298661947250366,-1100.0,-88.0,16436.0,-641.0,-24.0,-234.0,16473.003369149174
11.322990655899048,-1264.0,-80.0,16456.0,-635.0,1.0,-246.0,16504.66697634339
11.346839666366577,-1156.0,-68.0,16448.0,-608.0,-18.0,-236.0,16488.713230570782
11.371278047561646,-1112.0,24.0,16124.0,-633.0,-28.0,-246.0,16162.317160605406
11.395099639892578,-1232.0,72.0,16476.0,-620.0,-132.0,-232.0,16522.15433894745
11.417991161346436,-1140.0,-12.0,16352.0,-617.0,-103.0,-237.0,16391.694482267536
11.440455436706543,-1164.0,-52.0,16448.0,-616.0,-57.0,-231.0,16489.217810436006
11.462802410125732,-1080.0,52.0,16384.0,-601.0,-71.0,-220.0,16419.639460109956
11.485634565353394,-1144.0,48.0,16460.0,-591.0,-66.0,-249.0,16499.7769681896
11.508126497268677,-1184.0,-16.0,16404.0,-635.0,-72.0,-209.0,16446.681367376215
11.531968116760254,-1208.0,60.0,16340.0,-613.0,-42.0,-243.0,16384.7021333926
11.555090427398682,-1156.0,-52.0,16408.0,-631.0,-65.0,-226.0,16448.753873774145
11.578331708908081,-1184.0,4.0,16304.0,-638.0,-55.0,-222.0,16346.93512558241
11.601038932800293,-1140.0,16.0,16328.0,-633.0,-25.0,-223.0,16367.75610766485
11.623722076416016,-1248.0,56.0,16196.0,-587.0,-64.0,-231.0,16244.108347336274
11.646338939666748,-1144.0,24.0,16376.0,-608.0,-53.0,-242.0,16415.92787508522
11.670194864273071,-1088.0,132.0,16400.0,-595.0,-101.0,-225.0,16436.580179587236
11.693641662597656,-1120.0,-48.0,16332.0,-608.0,-88.0,-230.0,16370.428461100217
11.716712236404419,-1196.0,-44.0,16436.0,-626.0,-95.0,-224.0,16479.516012310556
11.739635705947876,-1052.0,16.0,16444.0,-614.0,-86.0,-240.0,16477.62410057955
11.761930227279663,-1200.0,-8.0,16336.0,-599.0,-64.0,-218.0,16380.017094008175
11.78462839126587,-1224.0,40.0,16284.0,-599.0,-118.0,-224.0,16329.985670538723
11.808553218841553,-1140.0,-40.0,16436.0,-606.0,-106.0,-230.0,16475.53628869179
11.831922054290771,-1232.0,76.0,16404.0,-600.0,-41.0,-214.0,16450.374342245224
11.855356931686401,-1092.0,-44.0,16368.0,-641.0,-29.0,-233.0,16404.445251211637
11.87978982925415,-1108.0,84.0,16288.0,-622.0,-77.0,-216.0,16325.858752298453
11.902445077896118,-1132.0,24.0,16616.0,-598.0,-107.0,-234.0,16654.532596263398
11.92637586593628,-1196.0,8.0,16496.0,-609.0,-53.0,-229.0,16539.30155720005
11.948721647262573,-1144.0,-64.0,16324.0,-636.0,-31.0,-241.0,16364.162306699356
11.9709312915802,-1188.0,24.0,16532.0,-618.0,-11.0,-233.0,16574.64762823029
11.993723630905151,-792.0,24.0,16212.0,-591.0,-144.0,-228.0,16231.351884547386
12.016153335571289,-1020.0,28.0,16184.0,-623.0,-55.0,-231.0,16216.13517457227
12.03971529006958,-1100.0,-76.0,16252.0,-604.0,-74.0,-229.0,16289.360945107699
12.06301760673523,-1164.0,-72.0,16208.0,-595.0,-115.0,-236.0,16249.90289201754
12.086198329925537,-1252.0,24.0,16420.0,-625.0,-33.0,-231.0,16467.67986086686
12.109557628631592,-1108.0,8.0,16340.0,-607.0,-68.0,-236.0,16377.525087753644
12.132077693939209,-1124.0,-20.0,16456.0,-582.0,-86.0,-230.0,16494.353943092163
12.154804944992065,-1136.0,48.0,16412.0,-609.0,-123.0,-237.0,16451.33866893512
12.177786350250244,-1168.0,88.0,16236.0,-614.0,-62.0,-253.0,16278.195968841264
12.200709342956543,-1160.0,-28.0,16248.0,-592.0,-84.0,-222.0,16289.379607584815
12.223570823669434,-1144.0,-52.0,16308.0,-624.0,-80.0,-239.0,16348.159040087663
12.247250080108643,-1128.0,-16.0,16376.0,-621.0,-83.0,-202.0,16414.810873110906
12.270493984222412,-1092.0,76.0,16300.0,-605.0,-95.0,-228.0,16336.71447996812
12.293214321136475,-1172.0,44.0,16436.0,-601.0,-79.0,-221.0,16477.791599604603
12.315944910049438,-1132.0,-28.0,16340.0,-623.0,-73.0,-227.0,16379.188258274584
12.33870816230774,-1188.0,8.0,16316.0,-611.0,-111.0,-226.0,16359.195090223724
12.361763954162598,-1184.0,156.0,16376.0,-612.0,-71.0,-236.0,16419.48744632426
12.384177923202515,-1132.0,-64.0,16308.0,-633.0,-40.0,-233.0,16347.366271054185
12.406898021697998,-1156.0,16.0,16444.0,-579.0,-138.0,-220.0,16484.590622760395
12.429649829864502,-1064.0,104.0,16360.0,-607.0,-143.0,-229.0,16394.892863327896
12.452532529830933,-1100.0,44.0,16440.0,-579.0,-168.0,-220.0,16476.818139434567
12.475594282150269,-1236.0,-48.0,16340.0,-619.0,-56.0,-254.0,16386.750745648143
12.497810363769531,-1184.0,-28.0,16528.0,-599.0,-132.0,-216.0,16570.377907579536
12.52002477645874,-1200.0,-16.0,16236.0,-589.0,-93.0,-260.0,16280.29336345018
12.54315185546875,-1184.0,-56.0,16316.0,-578.0,-137.0,-238.0,16358.99899138086
12.566544532775879,-1256.0,-28.0,16320.0,-601.0,-96.0,-248.0,16368.283966256206
12.589550018310547,-1260.0,-112.0,16324.0,-616.0,-122.0,-225.0,16372.938648880354
12.612379550933838,-1288.0,-52.0,16580.0,-625.0,-77.0,-231.0,16630.03451589924
12.635098218917847,-1212.0,-76.0,16320.0,-601.0,-99.0,-231.0,16365.119003539205
12.658358335494995,-1092.0,-340.0,16376.0,-579.0,-69.0,-307.0,16415.889863178298
12.681463479995728,-1120.0,-224.0,16364.0,-602.0,12.0,-473.0,16403.812727533805
12.70487666130066,-1124.0,312.0,16336.0,-628.0,44.0,-500.0,16377.594939428684
12.72765851020813,-1128.0,-72.0,16472.0,-672.0,15.0,-230.0,16510.734447625277
12.750520467758179,-1216.0,-4.0,16244.0,-607.0,-123.0,-228.0,16289.450819472091
12.773420810699463,-1244.0,-112.0,16384.0,-602.0,-185.0,-243.0,16431.540889399264
12.796715497970581,-1192.0,-476.0,16480.0,-568.0,-139.0,-391.0,16529.907440757193
12.82009243965149,-1256.0,144.0,16520.0,-666.0,53.0,-470.0,16568.303232377177
12.844178915023804,-1140.0,100.0,16424.0,-651.0,166.0,-425.0,16463.820212818166
12.8666832447052,-1048.0,-116.0,16384.0,-626.0,-12.0,-423.0,16417.893165689682
12.88986325263977,-1160.0,32.0,16368.0,-608.0,-49.0,-457.0,16409.08431326989
12.91337251663208,-1128.0,-164.0,16260.0,-581.0,-34.0,-429.0,16299.904294197559
12.935844659805298,-1224.0,-164.0,16536.0,-550.0,-131.0,-463.0,16582.049571750773
12.958335876464844,-1188.0,36.0,16396.0,-584.0,-77.0,-490.0,16439.022355359215
12.981131315231323,-1192.0,-200.0,16328.0,-603.0,-24.0,-491.0,16372.673819507918
13.004298686981201,-1108.0,16.0,16456.0,-563.0,-146.0,-501.0,16493.266989896212
13.027612686157227,-1256.0,156.0,16376.0,-579.0,-67.0,-474.0,16424.836315774963
13.050928592681885,-1268.0,-132.0,16384.0,-575.0,-135.0,-512.0,16433.523785238514
13.074311017990112,-1088.0,184.0,16236.0,-665.0,96.0,-566.0,16273.45372070723
13.096986055374146,-932.0,-32.0,16232.0,-597.0,-56.0,-526.0,16258.766004835668
13.119798421859741,-1220.0,-92.0,16252.0,-567.0,-123.0,-467.0,16297.98662412017
13.142431020736694,-1260.0,68.0,16360.0,-560.0,-66.0,-558.0,16408.589945513297
13.165741205215454,-1132.0,36.0,16564.0,-602.0,-59.0,-533.0,16602.674965197628
13.18906855583191,-1096.0,204.0,16308.0,-613.0,-11.0,-566.0,16346.060565163705
13.212048530578613,-1136.0,-60.0,16296.0,-595.0,5.0,-640.0,16335.657684954102
13.235705852508545,-1124.0,-72.0,16480.0,-563.0,-56.0,-587.0,16518.443025902896
13.259136438369751,-1052.0,-56.0,16252.0,-555.0,-57.0,-634.0,16286.108927549269
13.282152891159058,-1108.0,-176.0,16560.0,-555.0,-106.0,-617.0,16597.958910661273
13.305461406707764,-1160.0,-52.0,16272.0,-548.0,-132.0,-693.0,16313.37757792665
13.328999042510986,-1160.0,-56.0,16344.0,-554.0,-94.0,-719.0,16385.20893977248
13.352470397949219,-1212.0,244.0,16316.0,-561.0,-131.0,-660.0,16362.77287014643
13.375231742858887,-1168.0,156.0,16248.0,-579.0,-10.0,-650.0,16290.674141974603
13.398704767227173,-1184.0,116.0,16352.0,-575.0,-135.0,-538.0,16395.219303199334
13.421627759933472,-1116.0,-232.0,16460.0,-570.0,-23.0,-534.0,16499.4205958876
13.444720983505249,-1096.0,-144.0,16344.0,-576.0,-41.0,-543.0,16381.339627759386
13.46706485748291,-1192.0,132.0,16464.0,-528.0,-186.0,-557.0,16507.621997126054
13.489808797836304,-1224.0,48.0,16336.0,-576.0,-121.0,-486.0,16381.861188521894
13.512701988220215,-1192.0,140.0,16332.0,-574.0,-116.0,-467.0,16376.040058573379
13.536165475845337,-1176.0,76.0,16432.0,-610.0,-91.0,-446.0,16474.203349479452
13.559298753738403,-1136.0,264.0,16244.0,-600.0,-38.0,-442.0,16285.813703957196
13.582083463668823,-1052.0,32.0,16316.0,-606.0,-62.0,-392.0,16349.91082544489
13.604676246643066,-1024.0,168.0,16288.0,-592.0,-54.0,-400.0,16321.021536656337
13.62711215019226,-1132.0,32.0,16352.0,-594.0,-64.0,-367.0,16391.166889517048
13.650442600250244,-1108.0,-64.0,16420.0,-583.0,-122.0,-355.0,16457.465175415076
13.673418045043945,-1264.0,40.0,16436.0,-629.0,-29.0,-335.0,16484.58043142136
13.69641399383545,-1132.0,68.0,16480.0,-609.0,-63.0,-305.0,16518.972365132162
13.718879461288452,-1160.0,60.0,16412.0,-621.0,-58.0,-259.0,16453.05272586215
13.741806268692017,-1260.0,-32.0,16408.0,-589.0,-64.0,-258.0,16456.338839486747
13.764983654022217,-1244.0,-36.0,16196.0,-609.0,-67.0,-265.0,16243.744888417817
13.788596630096436,-1172.0,-172.0,16400.0,-586.0,-60.0,-298.0,16442.723861939663
13.811659574508667,-1184.0,12.0,16320.0,-577.0,-104.0,-284.0,16362.897054006055
13.834829807281494,-1076.0,200.0,16240.0,-658.0,-26.0,-262.0,16276.835564691313
13.857338666915894,-1156.0,104.0,16348.0,-603.0,-84.0,-232.0,16389.15055760975
13.880531311035156,-1108.0,-20.0,16508.0,-603.0,-108.0,-256.0,16545.154215056442
13.903494834899902,-1228.0,-124.0,16320.0,-631.0,-23.0,-288.0,16366.605023644946
13.92624306678772,-1004.0,180.0,16468.0,-599.0,-85.0,-319.0,16499.558781979595
13.949090480804443,-1208.0,32.0,16396.0,-637.0,-73.0,-287.0,16440.471526084646
13.971649646759033,-1168.0,-8.0,16376.0,-607.0,-77.0,-282.0,16417.602260988053
13.994532823562622,-1180.0,72.0,16380.0,-601.0,-95.0,-254.0,16422.60588335481
14.017008781433105,-1092.0,100.0,16396.0,-609.0,-63.0,-241.0,16432.62851767787
14.03956127166748,-1180.0,40.0,16376.0,-633.0,-66.0,-267.0,16418.50711849284
14.062938451766968,-1164.0,20.0,16416.0,-633.0,-61.0,-250.0,16457.227956129183
14.086525678634644,-1192.0,-12.0,16372.0,-653.0,-9.0,-232.0,16415.34014268361
14.109942197799683,-1188.0,-8.0,16232.0,-646.0,-25.0,-238.0,16275.418028425567
14.13263463973999,-1228.0,-4.0,16428.0,-648.0,-8.0,-247.0,16473.833312256138
14.155325412750244,-1284.0,52.0,16500.0,-598.0,-138.0,-234.0,16549.96555887655
14.178379535675049,-1244.0,-16.0,16512.0,-608.0,-133.0,-232.0,16558.8023721524
14.201549530029297,-1280.0,-32.0,16416.0,-589.0,-42.0,-230.0,16465.85800983356
14.224914312362671,-1132.0,-16.0,16256.0,-614.0,-59.0,-235.0,16295.374067507624
14.247480869293213,-1128.0,-32.0,16236.0,-639.0,-30.0,-228.0,16275.16832478239
14.270556449890137,-1288.0,60.0,16368.0,-606.0,-72.0,-231.0,16418.707866333454
14.29360556602478,-1096.0,-36.0,16320.0,-610.0,-112.0,-213.0,16356.800176073559
14.317556142807007,-1188.0,-8.0,16320.0,-620.0,-77.0,-220.0,16363.184531135741
14.340685367584229,-1216.0,76.0,16396.0,-624.0,-104.0,-224.0,16441.20579519641
14.363768577575684,-1192.0,-16.0,16324.0,-598.0,-97.0,-222.0,16367.470665927585
14.387091398239136,-1132.0,24.0,16388.0,-621.0,-46.0,-236.0,16427.06741935395
14.409620761871338,-1172.0,-108.0,16520.0,-594.0,-57.0,-225.0,16561.873323993274
14.432448387145996,-1096.0,72.0,16476.0,-647.0,-47.0,-223.0,16512.570242091326
14.45531439781189,-1316.0,-32.0,16476.0,-612.0,-39.0,-258.0,16528.504348548904
14.478100776672363,-1156.0,-80.0,16384.0,-615.0,-50.0,-233.0,16424.925935906074
14.499831914901733,-1124.0,-104.0,16344.0,-645.0,-2.0,-217.0,16382.934047355498
14.521382808685303,-1244.0,-124.0,16332.0,-619.0,-60.0,-247.0,16379.778264677456
14.54265570640564,-1156.0,-72.0,16352.0,-613.0,-61.0,-216.0,16392.968736626077
14.565054416656494,-1172.0,8.0,16328.0,-630.0,-39.0,-240.0,16370.010140497776
14.586904287338257,-1028.0,-56.0,16448.0,-620.0,-56.0,-252.0,16480.188833869594
14.608228206634521,-1220.0,12.0,16312.0,-626.0,-26.0,-259.0,16357.563632766341
14.63069772720337,-1092.0,48.0,16236.0,-618.0,-74.0,-227.0,16272.75219500377
14.829498052597046,-1180.0,68.0,16444.0,-634.0,-61.0,-238.0,16486.423505418024
14.851771116256714,-1100.0,-84.0,16372.0,-602.0,-52.0,-234.0,16409.126728744584
14.874255657196045,-1156.0,-64.0,16324.0,-618.0,-22.0,-243.0,16365.005591199779
14.896138906478882,-1232.0,28.0,16332.0,-639.0,-75.0,-232.0,16378.425809582555
14.918254137039185,-1156.0,-8.0,16336.0,-617.0,-36.0,-244.0,16376.85244483811
14.940289497375488,-1248.0,28.0,16380.0,-583.0,-115.0,-222.0,16427.49792269048
14.962548732757568,-1120.0,68.0,16476.0,-596.0,-104.0,-219.0,16514.163617937178
14.984655857086182,-1180.0,-40.0,16496.0,-610.0,-80.0,-237.0,16538.19869272346
15.006526231765747,-1148.0,-16.0,16256.0,-602.0,-76.0,-246.0,16296.493365138404
15.028149366378784,-1168.0,-24.0,16312.0,-602.0,-77.0,-246.0,16353.780724957762
15.049595355987549,-1212.0,8.0,16344.0,-632.0,-40.0,-235.0,16388.87866817007
15.071050882339478,-1108.0,52.0,16408.0,-596.0,-77.0,-212.0,16445.45019146633
15.092754364013672,-1156.0,-84.0,16400.0,-586.0,-128.0,-232.0,16440.906057757278
15.114396095275879,-1140.0,44.0,16488.0,-587.0,-104.0,-233.0,16527.422061531557
15.136405229568481,-1072.0,72.0,16372.0,-587.0,-77.0,-243.0,16407.216461057615
15.158390283584595,-1204.0,-20.0,16364.0,-619.0,-54.0,-212.0,16408.245244388567
15.180174350738525,-1164.0,48.0,16312.0,-640.0,-58.0,-236.0,16353.548361135574
15.201449632644653,-1048.0,12.0,16280.0,-600.0,-40.0,-246.0,16313.701235464625
15.222637414932251,-1092.0,56.0,16520.0,-645.0,-68.0,-225.0,16556.14689473369
15.244091033935547,-1160.0,36.0,16320.0,-616.0,-77.0,-233.0,16361.213157953784
15.26528787612915,-1236.0,24.0,16308.0,-620.0,-99.0,-245.0,16354.789390267304
15.28672981262207,-1164.0,-28.0,16416.0,-615.0,-57.0,-238.0,16457.239622731387
15.308237791061401,-1204.0,0.0,16488.0,-646.0,-35.0,-231.0,16531.90128206674
15.329974889755249,-1264.0,-24.0,16500.0,-636.0,-66.0,-242.0,16548.36161074564
15.351149320602417,-1224.0,-12.0,16344.0,-634.0,-22.0,-237.0,16389.772908737938
15.37253999710083,-1112.0,0.0,16460.0,-625.0,-86.0,-235.0,16497.51932867484
15.393656730651855,-1180.0,52.0,16428.0,-603.0,-34.0,-235.0,16470.406430929383
15.415680408477783,-1112.0,-28.0,16304.0,-626.0,-45.0,-237.0,16341.90148054993
15.43724775314331,-1212.0,80.0,16348.0,-608.0,-43.0,-241.0,16393.060971032835
15.458238363265991,-1204.0,-16.0,16384.0,-595.0,-135.0,-211.0,16428.186996744345
15.480163335800171,-1120.0,-92.0,16280.0,-626.0,-59.0,-239.0,16318.739657216178
15.503472089767456,-1208.0,-80.0,16224.0,-580.0,-121.0,-227.0,16269.106920787017
15.5259370803833,-1056.0,48.0,16240.0,-562.0,-178.0,-206.0,16274.367576038094
15.546812534332275,-1288.0,-32.0,16256.0,-616.0,-62.0,-226.0,16306.977157033121
15.568135738372803,-1180.0,72.0,16244.0,-634.0,-2.0,-232.0,16286.961656490752
15.589848756790161,-1092.0,-32.0,16376.0,-615.0,-96.0,-229.0,16412.399702663835
15.612083911895752,-1200.0,-52.0,16428.0,-613.0,-75.0,-246.0,16471.851383496636
15.633437633514404,-1212.0,68.0,16240.0,-604.0,-68.0,-231.0,16285.305278072008
15.654766321182251,-1244.0,60.0,16540.0,-678.0,57.0,-237.0,16586.8241685984
15.676154613494873,-1224.0,-100.0,16408.0,-643.0,4.0,-245.0,16453.89437185009
15.698126554489136,-1052.0,60.0,16124.0,-657.0,15.0,-231.0,16158.393484502103
15.720248222351074,-1192.0,-44.0,16356.0,-536.0,-308.0,-212.0,16399.437063509224
15.741450786590576,-1144.0,-24.0,16352.0,-645.0,-31.0,-237.0,16391.986334791767
15.762809991836548,-1168.0,44.0,16496.0,-496.0,-371.0,-214.0,16537.35698350858
15.78458046913147,-1160.0,-120.0,16448.0,-663.0,-57.0,-227.0,16489.29058510402
15.806209087371826,-1132.0,40.0,16272.0,-655.0,-40.0,-231.0,16311.376643312482
15.828634262084961,-1328.0,-56.0,16508.0,-638.0,-37.0,-230.0,16561.42457640646
15.85086178779602,-1108.0,28.0,16384.0,-639.0,35.0,-229.0,16421.44646491289
15.873045921325684,-1132.0,-144.0,16408.0,-597.0,-66.0,-250.0,16447.632778001825
15.895550966262817,-1248.0,-156.0,16336.0,-601.0,-84.0,-252.0,16384.344234664994
15.917744159698486,-1132.0,-100.0,16340.0,-583.0,-129.0,-255.0,16379.469588481796
15.940354585647583,-1260.0,316.0,16588.0,-669.0,13.0,-246.0,16638.78601340855
15.962219953536987,-1156.0,48.0,16332.0,-637.0,-45.0,-235.0,16372.93083110046
15.984509706497192,-1240.0,60.0,16264.0,-670.0,2.0,-253.0,16311.311903093509
16.00786852836609,-1124.0,-8.0,16360.0,-714.0,169.0,-280.0,16398.568230184
16.029808521270752,-752.0,208.0,16036.0,-555.0,-196.0,-232.0,16054.970071600881
16.05281710624695,-1132.0,12.0,16272.0,-598.0,-111.0,-231.0,16311.332011825398
16.075267791748047,-1176.0,-68.0,16264.0,-617.0,-118.0,-238.0,16306.60283443489
16.098445177078247,-1180.0,44.0,16356.0,-612.0,-76.0,-236.0,16398.569205878906
16.12069797515869,-1200.0,-64.0,16256.0,-616.0,-73.0,-230.0,16300.356805910722
16.14419388771057,-1200.0,-80.0,16352.0,-609.0,-62.0,-243.0,16396.167357038048
16.16727304458618,-1200.0,-40.0,16480.0,-619.0,-43.0,-233.0,16523.67997753527
16.188730478286743,-1244.0,-108.0,16340.0,-635.0,-87.0,-210.0,16387.64168512358
16.21122980117798,-1208.0,-40.0,16408.0,-653.0,-70.0,-238.0,16452.456594685184
16.23463535308838,-1180.0,-100.0,16316.0,-615.0,-68.0,-229.0,16358.919768737787
16.256983757019043,-1164.0,-112.0,16352.0,-591.0,-185.0,-228.0,16393.75930041673
16.279783725738525,-1084.0,-36.0,16464.0,-606.0,-122.0,-217.0,16499.68630004825
16.302180290222168,-1032.0,-16.0,16336.0,-664.0,23.0,-258.0,16368.572815001313
16.324824333190918,-1068.0,104.0,16356.0,-669.0,96.0,-249.0,16391.161520770882
16.347679615020752,-1272.0,20.0,16356.0,-651.0,54.0,-246.0,16405.399111268216
16.370754718780518,-1312.0,-104.0,16448.0,-582.0,-179.0,-244.0,16500.571626461915
16.394027709960938,-1152.0,-8.0,16412.0,-590.0,-51.0,-240.0,16452.38317083577
16.416791439056396,-1144.0,-48.0,16304.0,-634.0,-51.0,-251.0,16344.156631652793
16.4392831325531,-1288.0,-28.0,16416.0,-619.0,-38.0,-217.0,16466.47454678748
16.46151828765869,-1156.0,-172.0,16320.0,-651.0,-9.0,-227.0,16361.79452260662
16.484262943267822,-1124.0,8.0,16380.0,-619.0,-49.0,-247.0,16418.521248882313
16.507118701934814,-1220.0,-64.0,16424.0,-577.0,-126.0,-229.0,16469.373758585964
16.529219388961792,-1108.0,-52.0,16424.0,-546.0,-239.0,-213.0,16461.4137910448
16.550861358642578,-860.0,108.0,16220.0,-673.0,71.0,-249.0,16243.142060574364
16.573366165161133,-1152.0,32.0,16564.0,-587.0,-107.0,-264.0,16604.042399367692
16.596872806549072,-1216.0,-80.0,16408.0,-617.0,-107.0,-253.0,16453.191787613734
16.620562314987183,-1272.0,84.0,16528.0,-594.0,-145.0,-243.0,16577.08731955044
16.64328169822693,-1084.0,-88.0,16256.0,-605.0,-104.0,-228.0,16292.339795130716
16.665987253189087,-1224.0,-68.0,16456.0,-623.0,-52.0,-227.0,16501.597983225747
16.688613414764404,-1152.0,-120.0,16496.0,-652.0,15.0,-266.0,16536.61150296517
16.712645053863525,-1112.0,180.0,16228.0,-625.0,5.0,-244.0,16267.050377988015
16.73573660850525,-1156.0,-60.0,16472.0,-699.0,156.0,-254.0,16512.62305026067
16.75841736793518,-1356.0,-168.0,16528.0,-619.0,-43.0,-229.0,16584.382532973606
16.78079056739807,-1416.0,-48.0,16496.0,-617.0,-81.0,-239.0,16556.732044700126
16.803044319152832,-1148.0,-52.0,16284.0,-630.0,-20.0,-229.0,16324.49888970562
16.826236724853516,-1136.0,-68.0,16204.0,-619.0,-32.0,-209.0,16243.913814102807
16.849067211151123,-1244.0,-44.0,16356.0,-656.0,-21.0,-240.0,16403.298692641063
16.87171459197998,-1252.0,-148.0,16352.0,-610.0,-46.0,-227.0,16400.52779638509
16.89434838294983,-1216.0,-60.0,16252.0,-616.0,-116.0,-217.0,16297.538464443027
16.917503356933594,-1172.0,16.0,16300.0,-521.0,-340.0,-233.0,16342.087993888663
16.93959641456604,-1032.0,52.0,16252.0,-617.0,-75.0,-209.0,16284.81599527609
16.961747884750366,-1292.0,0.0,16444.0,-591.0,-119.0,-213.0,16494.677929562615
16.983364820480347,-1104.0,-16.0,16256.0,-606.0,-44.0,-224.0,16293.452918273646
17.00550866127014,-1112.0,-44.0,16380.0,-607.0,-205.0,-211.0,16417.761114110534
17.03272581100464,-1368.0,-152.0,16472.0,-591.0,-145.0,-240.0,16529.407490893314
17.055076360702515,-1228.0,64.0,16468.0,-612.0,-33.0,-249.0,16513.845827062818
17.076552867889404,-1132.0,72.0,16340.0,-640.0,-27.0,-249.0,16379.32257451449
17.097840547561646,-1136.0,24.0,16376.0,-660.0,25.0,-249.0,16415.372307687692
17.119384765625,-1252.0,-24.0,16444.0,-691.0,140.0,-252.0,16491.610473207278
17.141865253448486,-1048.0,0.0,16164.0,-710.0,261.0,-261.0,16197.938140393055
17.16430139541626,-1052.0,8.0,16424.0,-652.0,30.0,-237.0,16457.659128806867
17.18641209602356,-1216.0,-80.0,16420.0,-625.0,-76.0,-231.0,16465.15885134425
17.208675622940063,-1068.0,72.0,16208.0,-623.0,-39.0,-228.0,16243.308529976275
17.230989933013916,-1116.0,-68.0,16396.0,-607.0,-101.0,-240.0,16434.077278630524
17.25336265563965,-1200.0,-64.0,16352.0,-624.0,-88.0,-249.0,16396.09709656539
17.275997400283813,-1228.0,92.0,16308.0,-601.0,-141.0,-228.0,16354.427901947533
17.29846429824829,-1240.0,32.0,16560.0,-495.0,-379.0,-215.0,16606.391058866462
17.32077693939209,-956.0,48.0,16156.0,-632.0,-24.0,-241.0,16184.33118791135
17.343496322631836,-1204.0,72.0,16300.0,-614.0,-93.0,-231.0,16344.564845844016
17.366050958633423,-1184.0,-80.0,16428.0,-602.0,-58.0,-236.0,16470.805687640175
17.388352155685425,-1108.0,-36.0,16176.0,-602.0,-4.0,-248.0,16213.942642059641
17.40991759300232,-1124.0,100.0,16236.0,-645.0,-31.0,-227.0,16275.167341689608
17.431281089782715,-1104.0,20.0,16344.0,-647.0,-32.0,-229.0,16381.256117892792
17.453377962112427,-1124.0,64.0,16232.0,-607.0,-77.0,-219.0,16270.995544219168
17.47568368911743,-1064.0,64.0,16384.0,-656.0,42.0,-241.0,16418.637215067516
17.497535705566406,-1116.0,12.0,16368.0,-710.0,118.0,-277.0,16406.00572961012
17.519831895828247,-888.0,156.0,16416.0,-611.0,-93.0,-230.0,16440.740129325077
17.542038917541504,-1104.0,-24.0,16276.0,-625.0,-116.0,-235.0,16313.416809485376
17.56450319290161,-1176.0,64.0,16400.0,-622.0,-125.0,-232.0,16442.234398037268
17.586668491363525,-1108.0,-144.0,16332.0,-595.0,-84.0,-231.0,16370.17483107618
17.608694553375244,-1148.0,-72.0,16396.0,-631.0,-50.0,-242.0,16436.29836672479
17.63026237487793,-1220.0,-84.0,16328.0,-608.0,-91.0,-230.0,16373.73017977272
17.652759313583374,-1140.0,-32.0,16428.0,-605.0,-127.0,-244.0,16467.538006635965
17.675562620162964,-1076.0,-48.0,16148.0,-575.0,-197.0,-219.0,16183.880375237577
17.698200464248657,-1064.0,48.0,16204.0,-681.0,87.0,-233.0,16238.965976933383
17.72085213661194,-1164.0,84.0,16408.0,-625.0,-60.0,-240.0,16449.450325162845
17.743088006973267,-1256.0,36.0,16368.0,-613.0,-65.0,-227.0,16416.158381302248
17.76531171798706,-1168.0,84.0,16332.0,-638.0,-82.0,-234.0,16373.927567935556
17.78773856163025,-1112.0,-56.0,16428.0,-620.0,-33.0,-240.0,16465.687474259918
17.811248302459717,-1200.0,56.0,16428.0,-580.0,-82.0,-221.0,16471.864496771457
17.83365559577942,-1116.0,-40.0,16380.0,-635.0,-102.0,-222.0,16418.022292590544
17.85649847984314,-1220.0,-28.0,16272.0,-657.0,30.0,-252.0,16317.69493525357
17.87959885597229,-1144.0,-12.0,16464.0,-648.0,69.0,-248.0,16503.701887758394
17.901668071746826,-836.0,36.0,16080.0,-678.0,127.0,-256.0,16101.757419611065
17.924203634262085,-1040.0,48.0,16332.0,-619.0,-63.0,-241.0,16365.14980071982
17.94566559791565,-1048.0,60.0,16344.0,-622.0,-73.0,-224.0,16377.675048675255
17.96760869026184,-1172.0,-4.0,16328.0,-627.0,-59.0,-242.0,16370.0086744021
17.989853620529175,-1148.0,-8.0,16508.0,-589.0,-83.0,-215.0,16547.870920453784
18.012871742248535,-1192.0,-60.0,16344.0,-597.0,-143.0,-223.0,16387.51964148327
18.04615879058838,-1172.0,32.0,16296.0,-633.0,-131.0,-220.0,16338.12180148012
18.06894612312317,-1100.0,12.0,16196.0,-686.0,180.0,-271.0,16233.316358649578
18.09142541885376,-1192.0,-28.0,16484.0,-640.0,17.0,-244.0,16527.065801284873
18.11397361755371,-1168.0,24.0,16376.0,-609.0,-49.0,-221.0,16417.617854000622
18.137295722961426,-1144.0,56.0,16376.0,-612.0,-93.0,-234.0,16416.005847952176
18.15995740890503,-1164.0,-40.0,16376.0,-574.0,-79.0,-228.0,16417.364953000222
18.182655572891235,-1092.0,24.0,16256.0,-625.0,-45.0,-247.0,16292.654050215391
18.20524263381958,-1112.0,28.0,16352.0,-647.0,11.0,-229.0,16389.79048066204
18.22860813140869,-1220.0,-8.0,16352.0,-672.0,48.0,-249.0,16397.450045662586
18.250765085220337,-1180.0,40.0,16428.0,-681.0,78.0,-244.0,16470.37291623963
18.272629261016846,-992.0,96.0,16344.0,-659.0,28.0,-238.0,16374.358491250887
18.29497742652893,-1044.0,12.0,16304.0,-644.0,-22.0,-238.0,16337.395630883155
18.31695032119751,-1180.0,60.0,16336.0,-625.0,-72.0,-222.0,16378.671985237386
18.33919882774353,-1112.0,-60.0,16340.0,-626.0,-90.0,-209.0,16377.90413941906
18.361207485198975,-1216.0,40.0,16412.0,-629.0,-22.0,-244.0,16457.03496988446
18.38339900970459,-1160.0,4.0,16436.0,-609.0,-108.0,-240.0,16476.884171468828
18.40570616722107,-1248.0,24.0,16340.0,-540.0,-195.0,-242.0,16387.60751299591
18.428335189819336,-1140.0,56.0,16372.0,-520.0,-247.0,-227.0,16411.737263312498
18.451491832733154,-1176.0,-108.0,16352.0,-540.0,-254.0,-228.0,16394.58886340246
18.474153518676758,-1248.0,-52.0,16548.0,-637.0,-53.0,-226.0,16595.074932039326
18.496806859970093,-1264.0,20.0,16388.0,-604.0,-131.0,-242.0,16436.685797325445
18.51883339881897,-1204.0,-88.0,16468.0,-602.0,-57.0,-237.0,16512.18895240725
18.54103922843933,-1004.0,76.0,16432.0,-614.0,-66.0,-231.0,16462.819199638925
18.563578605651855,-1180.0,4.0,16308.0,-646.0,4.0,-260.0,16350.63546165714
18.585543155670166,-1192.0,56.0,16324.0,-647.0,-2.0,-243.0,16367.558645075937
18.607715368270874,-1156.0,-8.0,16496.0,-667.0,70.0,-243.0,16536.45717800521
18.629819869995117,-1292.0,-92.0,16700.0,-555.0,-266.0,-236.0,16750.156058974495
18.653165340423584,-1340.0,-4.0,16552.0,-572.0,-179.0,-243.0,16606.15307649547
18.67704176902771,-1152.0,-12.0,16428.0,-597.0,-71.0,-243.0,16468.3463650726
18.700261116027832,-1168.0,8.0,16288.0,-628.0,-81.0,-224.0,16329.826453456264
18.723440408706665,-1244.0,-8.0,16272.0,-605.0,-83.0,-232.0,16319.484795789358
18.747090578079224,-1164.0,-44.0,16276.0,-607.0,-86.0,-240.0,16317.628749300555
18.76998543739319,-1240.0,92.0,16292.0,-597.0,-108.0,-213.0,16339.379669987475
18.79385781288147,-1196.0,-24.0,16376.0,-577.0,-189.0,-244.0,16419.633613451915
18.817513704299927,-1136.0,48.0,16404.0,-583.0,-183.0,-222.0,16443.357807941782
18.840325117111206,-1324.0,32.0,16432.0,-602.0,-100.0,-230.0,16485.285074878142
18.86407971382141,-1124.0,8.0,16440.0,-606.0,-105.0,-237.0,16478.380988434514
18.888319969177246,-1228.0,64.0,16452.0,-592.0,-121.0,-229.0,16497.890289367304
18.911069869995117,-1132.0,-40.0,16412.0,-610.0,-57.0,-222.0,16451.04154757382
18.933408737182617,-1172.0,-20.0,16320.0,-624.0,-42.0,-226.0,16362.040948488058
18.95646858215332,-1144.0,-16.0,16216.0,-639.0,-52.0,-249.0,16256.311020646719
18.979785442352295,-1184.0,-88.0,16368.0,-630.0,-2.0,-234.0,16411.003138138753
19.00258493423462,-1204.0,-68.0,16440.0,-689.0,89.0,-262.0,16484.16937549478
19.025197982788086,-1076.0,8.0,16368.0,-579.0,-194.0,-220.0,16403.330881257014
19.047887325286865,-1124.0,84.0,16352.0,-601.0,-126.0,-222.0,16390.80034653586
19.071008920669556,-1144.0,-64.0,16436.0,-581.0,-110.0,-229.0,16475.88929314591
19.093801259994507,-1156.0,-108.0,16316.0,-606.0,-107.0,-218.0,16357.256982758448
19.116790771484375,-1224.0,-8.0,16372.0,-609.0,-78.0,-230.0,16417.69240788729
19.139336585998535,-1172.0,-44.0,16320.0,-604.0,-112.0,-248.0,16362.087886330399
19.16253352165222,-1228.0,24.0,16388.0,-549.0,-229.0,-230.0,16433.96190819487
19.18571186065674,-1220.0,-52.0,16352.0,-544.0,-226.0,-217.0,16397.53054578646
19.208617210388184,-1212.0,-64.0,16576.0,-599.0,-108.0,-248.0,16620.373521675137
19.23099684715271,-1160.0,-16.0,16368.0,-642.0,7.0,-231.0,16409.060911581746
19.254547357559204,-1100.0,0.0,16388.0,-595.0,-77.0,-237.0,16424.875768175538
19.277307510375977,-1172.0,-8.0,16436.0,-622.0,-75.0,-236.0,16477.73479577821
19.30018639564514,-1096.0,-4.0,16472.0,-619.0,-78.0,-219.0,16508.42257758142
19.32283592224121,-1108.0,-48.0,16340.0,-626.0,-56.0,-225.0,16377.593474011986
19.345272541046143,-1224.0,-144.0,16436.0,-611.0,-67.0,-232.0,16482.142093793515
19.367849349975586,-1076.0,44.0,16492.0,-624.0,7.0,-235.0,16527.122435560283
19.39066243171692,-1240.0,36.0,16348.0,-657.0,43.0,-261.0,16394.999237572414
19.413996934890747,-1108.0,100.0,16140.0,-745.0,213.0,-238.0,16178.296078388477
19.437530994415283,-1072.0,-80.0,16408.0,-631.0,-6.0,-235.0,16443.176335489443
19.460152864456177,-1124.0,-56.0,16380.0,-620.0,-31.0,-230.0,16418.614801498938
19.482376098632812,-1104.0,-32.0,16440.0,-604.0,-55.0,-219.0,16477.057989823305
19.50495171546936,-1152.0,72.0,16404.0,-625.0,-91.0,-222.0,16444.558492097014
19.528061628341675,-1212.0,24.0,16552.0,-573.0,-195.0,-222.0,16596.331642866142
19.551112413406372,-1228.0,-52.0,16496.0,-571.0,-165.0,-216.0,16541.72614934729
19.573690176010132,-1304.0,-60.0,16480.0,-615.0,-112.0,-229.0,16531.618674527912
19.59623146057129,-1272.0,-112.0,16540.0,-616.0,-25.0,-233.0,16589.217220833536
19.618865251541138,-1276.0,-4.0,16344.0,-624.0,-56.0,-235.0,16393.7344128786
19.64160656929016,-1144.0,-8.0,16460.0,-638.0,-65.0,-260.0,16499.709088344556
19.664066553115845,-1220.0,44.0,16240.0,-645.0,-42.0,-247.0,16285.820089881872
19.686719179153442,-1300.0,32.0,16424.0,-619.0,-36.0,-235.0,16475.39984340289
19.7096745967865,-1256.0,0.0,16276.0,-659.0,-13.0,-234.0,16324.390095804498
19.732553243637085,-1212.0,-112.0,16436.0,-681.0,112.0,-249.0,16481.00676536479
19.755883932113647,-1448.0,56.0,16672.0,-579.0,-252.0,-216.0,16734.85655749699
19.778369665145874,-1328.0,-80.0,16604.0,-617.0,-191.0,-210.0,16657.214653116527
19.801685094833374,-1080.0,-8.0,16372.0,-607.0,-60.0,-251.0,16407.58507520226
19.824005365371704,-1116.0,-28.0,16476.0,-637.0,-83.0,-241.0,16513.776551715844
19.84654951095581,-1084.0,-44.0,16164.0,-624.0,-53.0,-238.0,16200.366909425231
19.869258880615234,-1200.0,24.0,16396.0,-606.0,-84.0,-225.0,16439.872018966573
19.891759634017944,-1112.0,-56.0,16320.0,-578.0,-97.0,-237.0,16357.93630015718
19.915353298187256,-1248.0,-24.0,16316.0,-563.0,-214.0,-213.0,16363.677337322439
19.938345193862915,-980.0,4.0,16352.0,-611.0,-65.0,-227.0,16381.340604480452
19.96079182624817,-1044.0,-100.0,16336.0,-628.0,-145.0,-234.0,16369.631394750464
19.98328948020935,-1192.0,84.0,16424.0,-601.0,-88.0,-217.0,16467.413154469647
20.005542755126953,-1244.0,-12.0,16484.0,-567.0,-142.0,-231.0,16530.878258580215
20.02783989906311,-1248.0,52.0,16416.0,-646.0,-50.0,-238.0,16463.452371844734
20.050822019577026,-1252.0,-68.0,16560.0,-570.0,-191.0,-226.0,16607.399796476268
20.07382035255432,-1320.0,-52.0,16476.0,-601.0,-83.0,-234.0,16528.874129837157
20.096302032470703,-1168.0,68.0,16400.0,-632.0,-65.0,-237.0,16441.680206110323
20.119553804397583,-1132.0,8.0,16436.0,-647.0,38.0,-255.0,16474.938057546682
20.14252281188965,-1192.0,-96.0,16468.0,-673.0,50.0,-230.0,16511.362875304992
20.165691614151,-864.0,40.0,16208.0,-756.0,283.0,-269.0,16231.061579576364
20.188267707824707,-1048.0,-108.0,16368.0,-622.0,-2.0,-224.0,16401.871600521692
20.21077299118042,-1044.0,72.0,16420.0,-620.0,-27.0,-238.0,16453.31334412616
20.23337745666504,-1120.0,0.0,16272.0,-610.0,-58.0,-223.0,16310.499195303619
20.255777597427368,-1100.0,-96.0,16396.0,-644.0,-66.0,-220.0,16433.138227374588
20.2784423828125,-1212.0,-56.0,16432.0,-596.0,-107.0,-220.0,16476.732200287774
20.300884008407593,-1088.0,116.0,16304.0,-614.0,-50.0,-215.0,16340.673670323387
20.32365918159485,-1200.0,-40.0,16476.0,-678.0,41.0,-230.0,16519.69055400252
20.34650945663452,-1116.0,-100.0,16368.0,-652.0,-40.0,-254.0,16406.306104665975
20.369144201278687,-1172.0,36.0,16328.0,-636.0,5.0,-244.0,16370.047770241845
20.392242431640625,-1172.0,-52.0,16232.0,-634.0,-62.0,-231.0,16274.339064920578
20.4154634475708,-1136.0,20.0,16308.0,-647.0,-61.0,-226.0,16347.530700384079
20.43778347969055,-1060.0,84.0,16260.0,-631.0,-53.0,-229.0,16294.730927511506
20.460020780563354,-1188.0,-16.0,16440.0,-662.0,52.0,-245.0,16482.87596264681
20.48306369781494,-1176.0,20.0,16316.0,-668.0,86.0,-250.0,16358.338301918076
20.50616216659546,-884.0,152.0,16244.0,-674.0,98.0,-215.0,16268.745987321825
20.529003381729126,-1312.0,-84.0,16356.0,-636.0,-37.0,-206.0,16408.751811152488
20.55165410041809,-1100.0,60.0,16396.0,-667.0,-46.0,-239.0,16432.96735224652
20.574511289596558,-1224.0,-112.0,16328.0,-643.0,-58.0,-238.0,16374.196285619639
20.596749544143677,-1168.0,-4.0,16344.0,-626.0,-101.0,-233.0,16385.68204256387
20.61922335624695,-1092.0,-4.0,16424.0,-587.0,-119.0,-242.0,16460.262938361586
20.64140796661377,-1248.0,8.0,16356.0,-598.0,-99.0,-229.0,16403.54547041584
20.663401126861572,-1224.0,132.0,16268.0,-604.0,-72.0,-209.0,16314.515745188393
20.685042142868042,-1316.0,44.0,16596.0,-666.0,58.0,-234.0,16648.153290980954
20.70736026763916,-1096.0,48.0,16388.0,-640.0,-62.0,-238.0,16424.678505224994
20.72955346107483,-1240.0,60.0,16344.0,-605.0,-98.0,-220.0,16391.080989367358
20.75196862220764,-1128.0,-20.0,16368.0,-640.0,-36.0,-236.0,16406.834185789776
20.773454189300537,-1124.0,60.0,16472.0,-595.0,-103.0,-239.0,16510.41368349079
20.794634103775024,-1152.0,116.0,16232.0,-608.0,-78.0,-225.0,16273.241348913867
20.81752371788025,-1108.0,48.0,16432.0,-620.0,-83.0,-231.0,16469.38347358516
20.83954358100891,-1136.0,-48.0,16436.0,-645.0,-12.0,-233.0,16475.281363303027
20.861292839050293,-1188.0,84.0,16376.0,-660.0,83.0,-241.0,16419.25016558308
20.88313388824463,-880.0,112.0,16032.0,-672.0,14.0,-234.0,16056.524156865333
20.905882835388184,-1080.0,-64.0,16388.0,-606.0,-63.0,-238.0,16423.67315797535
20.928515672683716,-1140.0,20.0,16184.0,-617.0,-52.0,-242.0,16224.1134118324
20.951965808868408,-1088.0,-60.0,16476.0,-598.0,-63.0,-234.0,16511.99321705287
20.974556922912598,-1092.0,108.0,16240.0,-623.0,-75.0,-244.0,16277.030687444194
20.997447729110718,-1128.0,-144.0,16396.0,-612.0,-111.0,-217.0,16435.386700652954
21.020288228988647,-1156.0,92.0,16376.0,-578.0,-199.0,-215.0,16417.008740936944
21.043612718582153,-1048.0,8.0,16372.0,-611.0,-105.0,-232.0,16405.509806159636
21.067793130874634,-1160.0,52.0,16388.0,-564.0,-180.0,-224.0,16429.085427984115
21.090368270874023,-1200.0,-84.0,16320.0,-634.0,-55.0,-222.0,16364.273769403884
21.113077878952026,-1040.0,0.0,16336.0,-654.0,-36.0,-240.0,16369.071323688464
21.136377334594727,-1092.0,36.0,16216.0,-632.0,-5.0,-239.0,16252.76641067606
21.159336805343628,-1152.0,24.0,16344.0,-641.0,13.0,-233.0,16384.56639645981
21.18193244934082,-1152.0,-48.0,16356.0,-622.0,33.0,-228.0,16396.58940145785
21.204371452331543,-1140.0,8.0,16296.0,-649.0,19.0,-228.0,16335.828108792037
21.22722101211548,-1268.0,124.0,16348.0,-678.0,76.0,-234.0,16397.570063884465
21.250177145004272,-964.0,16.0,16092.0,-536.0,-220.0,-225.0,16120.856552925468
21.27316665649414,-1144.0,124.0,16288.0,-589.0,-105.0,-230.0,16328.596265447928
21.29594874382019,-1220.0,-84.0,16440.0,-605.0,-83.0,-236.0,16485.419497240586
21.318695783615112,-1088.0,36.0,16420.0,-606.0,-100.0,-219.0,16456.04569755444
21.341145038604736,-1200.0,48.0,16428.0,-608.0,-89.0,-219.0,16471.839241566195
21.3637535572052,-1176.0,-24.0,16328.0,-579.0,-113.0,-225.0,16370.312642096973
21.387090921401978,-1152.0,24.0,16424.0,-609.0,-101.0,-227.0,16464.369286431836
21.409624576568604,-1052.0,96.0,16236.0,-562.0,-174.0,-250.0,16270.329314429993
21.432302951812744,-1064.0,56.0,16292.0,-660.0,33.0,-229.0,16326.802993850328
21.455175399780273,-1140.0,32.0,16444.0,-614.0,-55.0,-224.0,16483.49962841629
21.47778296470642,-1092.0,-60.0,16156.0,-561.0,-150.0,-239.0,16192.973784947593
21.50115442276001,-1156.0,-52.0,16384.0,-603.0,-52.0,-209.0,16424.813423597847
21.523706674575806,-1040.0,84.0,16472.0,-596.0,-105.0,-234.0,16505.012571943105
21.546661138534546,-1180.0,-52.0,16452.0,-606.0,-56.0,-215.0,16494.344727815045
21.569310426712036,-1160.0,40.0,16464.0,-596.0,-62.0,-228.0,16504.862798581515
21.5924232006073,-1192.0,4.0,16404.0,-631.0,16.0,-235.0,16447.25192851377
21.616015911102295,-1184.0,-28.0,16508.0,-699.0,111.0,-273.0,16550.42911830385
21.639172077178955,-900.0,156.0,16176.0,-742.0,277.0,-240.0,16201.76879232635
21.66187810897827,-1012.0,-128.0,16252.0,-623.0,-41.0,-232.0,16283.980840077158
21.68474578857422,-1032.0,68.0,16292.0,-620.0,-35.0,-234.0,16324.794393804781
21.70779299736023,-1088.0,12.0,16504.0,-604.0,-109.0,-225.0,16539.827810470095
21.73086929321289,-1232.0,-80.0,16416.0,-631.0,-60.0,-218.0,16462.3594906684
21.75409984588623,-1228.0,56.0,16336.0,-590.0,-126.0,-219.0,16382.185934728002
21.77627468109131,-1112.0,0.0,16440.0,-590.0,-115.0,-213.0,16477.564868632744
21.79853892326355,-1324.0,24.0,16528.0,-650.0,20.0,-221.0,16580.963060087914
21.821539878845215,-1216.0,4.0,16164.0,-587.0,-182.0,-228.0,16209.675135547905
21.845136642456055,-1164.0,-64.0,16380.0,-619.0,-141.0,-229.0,16421.430875535785
21.868160009384155,-1184.0,28.0,16372.0,-626.0,-66.0,-245.0,16414.78065646934
21.891401767730713,-1116.0,96.0,16332.0,-592.0,-132.0,-225.0,16370.366397854386
21.91422963142395,-1164.0,-8.0,16528.0,-593.0,-19.0,-246.0,16568.939133209464
21.936893939971924,-1180.0,-112.0,16404.0,-645.0,-33.0,-237.0,16446.76746354736
21.959387063980103,-1248.0,-48.0,16412.0,-654.0,20.0,-259.0,16459.45175271643
21.982043266296387,-1168.0,0.0,16388.0,-653.0,27.0,-238.0,16429.5699274205
22.004985332489014,-1012.0,-8.0,16296.0,-714.0,145.0,-252.0,16327.394893246135
22.02722978591919,-1248.0,12.0,16500.0,-636.0,-74.0,-242.0,16547.13413253183
22.050212860107422,-1000.0,44.0,16492.0,-626.0,-46.0,-225.0,16522.348501348108
22.07276678085327,-1168.0,-16.0,16352.0,-623.0,-72.0,-212.0,16393.669021912086
22.095711946487427,-1140.0,72.0,16364.0,-610.0,-57.0,-232.0,16403.81906752205
22.11798334121704,-1116.0,-88.0,16368.0,-615.0,-123.0,-225.0,16406.237350471314
22.140714168548584,-1144.0,-68.0,16428.0,-539.0,-204.0,-206.0,16467.9247022811
22.163299798965454,-1192.0,-36.0,16284.0,-591.0,-218.0,-236.0,16327.609010507325
22.186043739318848,-1320.0,-32.0,16440.0,-601.0,-96.0,-229.0,16492.938610205278
22.20874834060669,-1252.0,-52.0,16348.0,-646.0,13.0,-235.0,16395.954135090768
22.231061697006226,-1288.0,-4.0,16344.0,-612.0,-66.0,-225.0,16394.672793319176
22.253856897354126,-1268.0,16.0,16396.0,-590.0,-118.0,-245.0,16444.965673421153
22.276960134506226,-1252.0,36.0,16408.0,-615.0,-73.0,-235.0,16455.73650737031
22.29975700378418,-1092.0,36.0,16456.0,-616.0,5.0,-251.0,16492.23138329074
22.322138786315918,-1076.0,60.0,16360.0,-689.0,50.0,-252.0,16395.455955843376
22.344231605529785,-1116.0,24.0,16244.0,-654.0,105.0,-223.0,16282.30843584533
22.36695170402527,-1404.0,-36.0,16568.0,-493.0,-443.0,-205.0,16627.421207150554
22.389493227005005,-1088.0,-8.0,16372.0,-577.0,-218.0,-228.0,16408.113602727157
22.413076639175415,-1216.0,-76.0,16320.0,-589.0,-129.0,-226.0,16365.415729519369
22.435964345932007,-1280.0,-112.0,16452.0,-598.0,-122.0,-240.0,16502.098290823502
22.4597384929657,-1208.0,4.0,16392.0,-617.0,-62.0,-212.0,16436.451685202617
22.482614517211914,-1240.0,0.0,16388.0,-627.0,-92.0,-258.0,16434.845420629914
22.504759311676025,-1212.0,68.0,16416.0,-580.0,-111.0,-234.0,16460.82087868038
22.527355670928955,-1096.0,-64.0,16232.0,-599.0,-141.0,-232.0,16269.08528467412
22.54991388320923,-1004.0,-16.0,16296.0,-690.0,174.0,-237.0,16326.90687178683
22.572632789611816,-1084.0,-36.0,16288.0,-641.0,-60.0,-230.0,16324.071060859787
22.595202684402466,-1244.0,-64.0,16380.0,-627.0,-106.0,-238.0,16427.295334290426
22.617401123046875,-1168.0,4.0,16280.0,-628.0,-52.0,-229.0,16321.8454838906
22.63983964920044,-1264.0,-92.0,16516.0,-606.0,-71.0,-239.0,16564.55299728912
22.662959098815918,-1044.0,-24.0,16240.0,-639.0,-31.0,-246.0,16273.540241754405
22.68591594696045,-1052.0,56.0,16316.0,-651.0,45.0,-239.0,16349.97541282555
22.708420753479004,-1200.0,-24.0,16348.0,-681.0,78.0,-241.0,16392.00048804294
22.731154203414917,-1260.0,56.0,16536.0,-516.0,-386.0,-227.0,16584.02942592662
22.75372862815857,-1124.0,0.0,16272.0,-571.0,-175.0,-231.0,16310.774353169134
22.775336742401123,-1252.0,-36.0,16340.0,-607.0,-145.0,-216.0,16387.934586152092
22.79795742034912,-1132.0,-116.0,16520.0,-618.0,-82.0,-219.0,16559.14490545934
22.820802211761475,-1264.0,100.0,16468.0,-650.0,-36.0,-236.0,16516.740598556364
22.843220949172974,-1192.0,20.0,16484.0,-606.0,-76.0,-237.0,16527.05418397362
22.865488052368164,-1076.0,-48.0,16312.0,-596.0,-112.0,-222.0,16347.520423599415
22.88781476020813,-1060.0,-52.0,16104.0,-586.0,-182.0,-220.0,16138.931810996663
22.911402702331543,-1100.0,40.0,16240.0,-616.0,-33.0,-237.0,16277.260211718678
22.934183359146118,-1172.0,40.0,16416.0,-613.0,-127.0,-227.0,16457.832178023935
22.957013607025146,-1188.0,-72.0,16380.0,-589.0,-112.0,-215.0,16423.18263918416
22.979141235351562,-1084.0,-24.0,16400.0,-624.0,-85.0,-243.0,16435.803357305052
23.001320600509644,-1272.0,-68.0,16360.0,-620.0,-95.0,-240.0,16409.5157759149
23.023938179016113,-1148.0,108.0,16432.0,-607.0,-51.0,-237.0,16472.406988658335
23.046888828277588,-1164.0,-92.0,16292.0,-607.0,-81.0,-215.0,16333.787803201069
23.06958818435669,-1248.0,-108.0,16376.0,-628.0,-17.0,-226.0,16423.840720123902
23.09194850921631,-1132.0,-32.0,16400.0,-673.0,69.0,-244.0,16439.052527442083
23.114354848861694,-1368.0,8.0,16420.0,-560.0,-257.0,-229.0,16476.88951228356
23.137075901031494,-1284.0,-36.0,16452.0,-560.0,-191.0,-233.0,16502.068234012364
23.160149097442627,-1236.0,-52.0,16476.0,-613.0,-105.0,-214.0,16522.378037074446
23.183141231536865,-1276.0,72.0,16540.0,-593.0,-126.0,-218.0,16589.302577263457
23.20603895187378,-1216.0,-60.0,16416.0,-614.0,-78.0,-237.0,16461.084775919233
23.229037046432495,-1160.0,-20.0,16424.0,-603.0,-98.0,-236.0,16464.925629956546
23.251924514770508,-1252.0,-4.0,16336.0,-576.0,-177.0,-216.0,16383.907226299836
23.27446413040161,-1260.0,-64.0,16528.0,-539.0,-289.0,-224.0,16576.081563505893
23.29770541191101,-1368.0,-60.0,16404.0,-606.0,-111.0,-222.0,16461.052214241958
23.320714950561523,-1188.0,12.0,16460.0,-623.0,-86.0,-220.0,16502.820607399208
23.344080448150635,-1264.0,-52.0,16384.0,-603.0,-118.0,-244.0,16432.767752268635
23.3664333820343,-1136.0,-4.0,16376.0,-628.0,-49.0,-204.0,16415.35525049641
23.390121459960938,-1064.0,0.0,16216.0,-610.0,-57.0,-244.0,16250.869269057579
23.415851354599,-1192.0,60.0,16560.0,-636.0,13.0,-237.0,16602.953472198853
23.440849542617798,-1184.0,116.0,16252.0,-674.0,59.0,-245.0,16295.484527929815
23.464407682418823,-1168.0,28.0,16452.0,-687.0,102.0,-249.0,16493.432389893864
23.48754620552063,-860.0,88.0,16140.0,-734.0,222.0,-247.0,16163.135339407389
23.510319471359253,-1092.0,60.0,16404.0,-613.0,-14.0,-237.0,16440.416053129557
23.532918214797974,-1200.0,-56.0,16320.0,-597.0,-49.0,-226.0,16364.153995853254
23.5561945438385,-1136.0,-28.0,16264.0,-620.0,-98.0,-229.0,16303.649162074114
23.57927656173706,-1280.0,-88.0,16424.0,-584.0,-95.0,-232.0,16474.037756421465
23.601933002471924,-1100.0,120.0,16288.0,-584.0,-152.0,-215.0,16325.542686232517
23.62563920021057,-1016.0,44.0,16300.0,-679.0,122.0,-210.0,16331.69286999973
23.649455785751343,-1168.0,-24.0,16512.0,-633.0,-64.0,-244.0,16553.275929555453
23.673370361328125,-1264.0,-12.0,16384.0,-617.0,-80.0,-223.0,16432.68985893667
23.696711778640747,-1308.0,44.0,16448.0,-598.0,-116.0,-236.0,16499.984969690126
23.719865322113037,-1224.0,4.0,16496.0,-600.0,-101.0,-221.0,16541.348433546766
23.742709159851074,-1244.0,-24.0,16472.0,-616.0,-86.0,-233.0,16518.925388777563
23.766218185424805,-1168.0,-68.0,16380.0,-649.0,-18.0,-230.0,16421.73096844544
23.789959192276,-1092.0,-48.0,16384.0,-671.0,25.0,-232.0,16420.420944665213
23.813212871551514,-1156.0,-52.0,16320.0,-661.0,23.0,-245.0,16360.973076195682
23.83633065223694,-1156.0,-80.0,16496.0,-633.0,42.0,-242.0,16536.6487536018
23.859357118606567,-852.0,104.0,16052.0,-666.0,88.0,-209.0,16074.931539512074
23.88240146636963,-1136.0,-4.0,16364.0,-620.0,-46.0,-221.0,16403.384041105666
23.905659437179565,-1060.0,-68.0,16380.0,-630.0,-21.0,-225.0,16414.40294375644
23.928586959838867,-1252.0,-16.0,16316.0,-631.0,-46.0,-231.0,16363.973111686539
23.951613426208496,-1140.0,-84.0,16300.0,-623.0,-83.0,-243.0,16340.032313309543
23.975379467010498,-1100.0,-136.0,16412.0,-570.0,-114.0,-254.0,16449.384183002112
23.998568534851074,-1232.0,-36.0,16424.0,-566.0,-195.0,-207.0,16470.182026923685
24.02143669128418,-964.0,48.0,16220.0,-628.0,22.0,-227.0,16248.692255070868
24.044734954833984,-1048.0,48.0,16308.0,-601.0,-126.0,-235.0,16341.709580089839
24.068341493606567,-1240.0,-36.0,16384.0,-588.0,-115.0,-231.0,16430.896262833627
24.091313123703003,-1096.0,-44.0,16296.0,-603.0,-100.0,-219.0,16332.873843876956
24.114920616149902,-1216.0,48.0,16424.0,-614.0,-33.0,-238.0,16469.02352903778
24.1385760307312,-1108.0,8.0,16384.0,-644.0,-22.0,-238.0,16421.42454234711
24.162296295166016,-1044.0,36.0,16408.0,-652.0,9.0,-234.0,16441.219419495625
24.185568809509277,-1168.0,4.0,16480.0,-659.0,46.0,-228.0,16521.338928791454
24.209288835525513,-1176.0,-36.0,16384.0,-686.0,89.0,-223.0,16426.190306945795
24.232738733291626,-808.0,112.0,15972.0,-695.0,137.0,-250.0,15992.816887590503
24.256877422332764,-1092.0,12.0,16224.0,-620.0,-87.0,-222.0,16260.712899501055
24.280651569366455,-1044.0,116.0,16220.0,-636.0,-15.0,-219.0,16253.977728543865
24.304309844970703,-1204.0,40.0,16392.0,-599.0,-86.0,-241.0,16436.206374951613
24.328185558319092,-1128.0,40.0,16292.0,-589.0,-78.0,-226.0,16331.051650154071
24.35112953186035,-1196.0,48.0,16344.0,-606.0,-80.0,-229.0,16387.771538558864
24.374118328094482,-1128.0,-32.0,16388.0,-582.0,-168.0,-233.0,16426.805897678343
24.39729404449463,-1012.0,-20.0,16240.0,-549.0,-205.0,-225.0,16271.513267056633
24.420214414596558,-1236.0,56.0,16468.0,-565.0,-159.0,-221.0,16514.413583291414
24.44361162185669,-1132.0,36.0,16320.0,-611.0,-63.0,-248.0,16359.251816632692
24.466920852661133,-1140.0,-44.0,16304.0,-617.0,-81.0,-246.0,16343.865882954375
24.491048336029053,-1140.0,48.0,16372.0,-619.0,-89.0,-231.0,16411.711915580287
24.515273571014404,-1248.0,0.0,16372.0,-613.0,-58.0,-234.0,16419.49719083992
24.538455486297607,-1232.0,72.0,16456.0,-670.0,9.0,-243.0,16502.210276202397
24.562002658843994,-1132.0,-88.0,16296.0,-667.0,88.0,-252.0,16335.506848579875
24.585513591766357,-1504.0,-96.0,16628.0,-573.0,-103.0,-232.0,16696.155725196146
24.608168601989746,-1452.0,-60.0,16628.0,-589.0,-164.0,-223.0,16691.38364546211
24.6319317817688,-1208.0,-4.0,16336.0,-609.0,-52.0,-234.0,16380.603651880476
24.655003309249878,-1204.0,32.0,16396.0,-634.0,-112.0,-229.0,16440.178101225058
24.67837119102478,-1120.0,48.0,16336.0,-618.0,-51.0,-229.0,16374.419073664872
24.70157766342163,-1120.0,-8.0,16428.0,-614.0,-88.0,-222.0,16466.13640171853
24.72463822364807,-1148.0,80.0,16348.0,-584.0,-157.0,-244.0,16388.453496288173
24.748598337173462,-1328.0,-24.0,16340.0,-543.0,-186.0,-222.0,16393.893985261708
24.772096633911133,-1272.0,-184.0,16440.0,-694.0,73.0,-246.0,16490.16191551799
24.796168088912964,-1172.0,40.0,16276.0,-604.0,-104.0,-232.0,16318.191076219202
24.81930422782898,-1212.0,116.0,16384.0,-620.0,-87.0,-220.0,16429.176972690995
24.842129945755005,-1108.0,-52.0,16376.0,-603.0,-89.0,-226.0,16413.5232049673
24.866209506988525,-1232.0,-124.0,16308.0,-624.0,-59.0,-234.0,16354.940048804825
24.88913607597351,-1048.0,80.0,16464.0,-635.0,-36.0,-227.0,16497.514964381757
24.91158366203308,-1112.0,-52.0,16368.0,-660.0,16.0,-245.0,16405.812140823753
24.935006380081177,-1200.0,-40.0,16312.0,-697.0,112.0,-271.0,16356.1286373029
24.958083391189575,-1476.0,-180.0,16528.0,-469.0,-466.0,-217.0,16594.750977342203
24.982316732406616,-1280.0,-76.0,16380.0,-550.0,-250.0,-215.0,16430.11186815233
25.005736112594604,-1288.0,40.0,16428.0,-578.0,-111.0,-223.0,16478.4625496434
25.028396129608154,-1236.0,-112.0,16468.0,-582.0,-130.0,-232.0,16514.69842292011
25.05138659477234,-1244.0,-40.0,16524.0,-628.0,-61.0,-241.0,16570.809032753954
25.074564456939697,-1192.0,-8.0,16340.0,-621.0,-148.0,-225.0,16383.422353098269
25.09816837310791,-1168.0,-40.0,16312.0,-589.0,-159.0,-228.0,16353.812032672993
25.121504545211792,-1180.0,20.0,16496.0,-520.0,-272.0,-214.0,16538.16241303731
25.145334243774414,-1176.0,-92.0,16460.0,-620.0,-80.0,-244.0,16502.213184903412
25.168294668197632,-1108.0,-48.0,16364.0,-670.0,-25.0,-241.0,16401.53846442461
25.191109657287598,-1244.0,-52.0,16268.0,-606.0,-160.0,-216.0,16315.57734191469
25.215003490447998,-1100.0,-112.0,16408.0,-610.0,-36.0,-242.0,16445.21231240266
25.238420248031616,-1216.0,0.0,16372.0,-611.0,-83.0,-239.0,16417.09596731407
25.26176118850708,-1168.0,-32.0,16216.0,-680.0,57.0,-249.0,16258.041210428764
25.28455424308777,-1084.0,12.0,16352.0,-670.0,125.0,-240.0,16387.895044818906
25.308269023895264,-1392.0,-76.0,16520.0,-435.0,-510.0,-188.0,16578.71647625352
25.331385850906372,-1092.0,-64.0,16432.0,-542.0,-254.0,-218.0,16468.369196735905
25.354859352111816,-1372.0,28.0,16440.0,-570.0,-172.0,-236.0,16497.174545963924
25.378416299819946,-1144.0,-16.0,16372.0,-625.0,-48.0,-236.0,16411.927857506565
25.40220546722412,-1232.0,24.0,16360.0,-610.0,-68.0,-235.0,16406.340237847075
25.425827026367188,-1288.0,-20.0,16372.0,-619.0,-87.0,-222.0,16422.598089218405
25.449177742004395,-1160.0,-20.0,16376.0,-602.0,-108.0,-222.0,16417.045288358073
25.472338914871216,-1176.0,-48.0,16412.0,-568.0,-201.0,-236.0,16454.149142389586
25.49603009223938,-956.0,-20.0,16240.0,-607.0,-121.0,-220.0,16268.126382592434
25.520046949386597,-1144.0,-40.0,16372.0,-589.0,-177.0,-236.0,16411.968803285
25.54307460784912,-1196.0,0.0,16408.0,-588.0,-123.0,-234.0,16451.531235723927
25.565832376480103,-1108.0,108.0,16472.0,-589.0,-84.0,-229.0,16509.576372517862
25.58820629119873,-1152.0,-8.0,16436.0,-626.0,-33.0,-230.0,16476.324347377966
25.611557245254517,-1036.0,16.0,16292.0,-619.0,-38.0,-236.0,16324.913966082639
25.634936809539795,-1260.0,-8.0,16416.0,-586.0,-38.0,-232.0,16464.286197706842
25.658076524734497,-1128.0,-64.0,16316.0,-646.0,41.0,-242.0,16355.070651024409
25.681251764297485,-1052.0,32.0,16344.0,-678.0,177.0,-227.0,16377.852850724968
25.70448350906372,-908.0,116.0,16184.0,-599.0,-119.0,-229.0,16209.86662499109
25.727849006652832,-1076.0,-48.0,16500.0,-580.0,-110.0,-248.0,16535.116570499285
25.7514009475708,-1216.0,16.0,16248.0,-599.0,-106.0,-235.0,16293.447026335465
25.7739098072052,-1120.0,28.0,16420.0,-623.0,-95.0,-238.0,16458.176812757847
25.798524379730225,-1276.0,20.0,16472.0,-621.0,-59.0,-245.0,16521.360718778582
25.82258892059326,-1276.0,12.0,16412.0,-581.0,-152.0,-218.0,16461.5328569365
25.846599578857422,-1192.0,-80.0,16344.0,-578.0,-144.0,-216.0,16387.60507212692
25.87023115158081,-1076.0,32.0,16196.0,-666.0,60.0,-243.0,16231.734842585372
25.89371132850647,-1116.0,56.0,16408.0,-612.0,-59.0,-255.0,16446.00425635358
25.917559146881104,-1308.0,-92.0,16348.0,-593.0,-127.0,-210.0,16400.500967958265
25.940940141677856,-1156.0,28.0,16460.0,-587.0,-144.0,-222.0,16500.567262976143
25.964540719985962,-1180.0,-144.0,16484.0,-617.0,-98.0,-271.0,16526.80828230303
25.988221883773804,-1140.0,124.0,16332.0,-607.0,-72.0,-234.0,16372.208158950338
26.01134204864502,-1104.0,48.0,16424.0,-681.0,6.0,-232.0,16461.132889324475
26.034886121749878,-1196.0,-12.0,16332.0,-700.0,211.0,-249.0,16375.737662774156
26.05834436416626,-908.0,-36.0,16268.0,-544.0,-309.0,-222.0,16293.360119999803
26.081650495529175,-1132.0,28.0,16472.0,-582.0,-152.0,-227.0,16510.874961672987
26.105071306228638,-1208.0,-72.0,16484.0,-566.0,-183.0,-205.0,16528.360596259994
26.128762006759644,-1212.0,-44.0,16412.0,-578.0,-148.0,-219.0,16456.750104440427
26.15296745300293,-1124.0,40.0,16376.0,-618.0,-79.0,-236.0,16414.577423741375
26.17654013633728,-1164.0,-24.0,16328.0,-614.0,-107.0,-221.0,16369.454969546176
26.199739933013916,-1284.0,-60.0,16424.0,-575.0,-117.0,-236.0,16474.223259383125
26.22283673286438,-1236.0,4.0,16484.0,-570.0,-200.0,-232.0,16530.274286895543
26.247159004211426,-960.0,4.0,16192.0,-614.0,-61.0,-223.0,16220.434026252195
26.273832082748413,-1176.0,16.0,16176.0,-602.0,-99.0,-233.0,16218.699331327405
26.29709529876709,-1220.0,-52.0,16332.0,-584.0,-118.0,-238.0,16377.586146926536
26.31942367553711,-1148.0,-60.0,16308.0,-618.0,-87.0,-218.0,16348.466839431763
26.341895580291748,-1168.0,16.0,16388.0,-601.0,-108.0,-232.0,16429.577718249486
26.36467480659485,-1120.0,32.0,16500.0,-617.0,-76.0,-231.0,16537.99939533195
26.387680768966675,-1224.0,16.0,16360.0,-668.0,53.0,-247.0,16405.731681336252
26.41097140312195,-1176.0,-40.0,16376.0,-671.0,91.0,-251.0,16418.22012277823
26.433586835861206,-868.0,44.0,15992.0,-662.0,-3.0,-230.0,16015.599395589288
26.455699920654297,-1176.0,28.0,16272.0,-604.0,-62.0,-228.0,16314.464257216661
26.47900104522705,-1208.0,-64.0,16452.0,-605.0,-86.0,-213.0,16496.413670855858
26.503116607666016,-1120.0,-20.0,16388.0,-614.0,-56.0,-243.0,16426.239496610295
26.525824785232544,-1188.0,4.0,16392.0,-587.0,-76.0,-251.0,16434.993885000382
26.549608945846558,-1304.0,-24.0,16476.0,-629.0,-100.0,-235.0,16527.539683812593
26.572230577468872,-1320.0,68.0,16380.0,-543.0,-224.0,-233.0,16433.24143314398
26.595468997955322,-872.0,112.0,16148.0,-623.0,-35.0,-232.0,16171.914914443496
26.61896586418152,-1100.0,-4.0,16312.0,-578.0,-178.0,-215.0,16349.047678687588
26.643056392669678,-1132.0,4.0,16368.0,-603.0,-106.0,-233.0,16407.097976180918
26.670384645462036,-1208.0,-124.0,16472.0,-570.0,-166.0,-238.0,16516.7013655875
26.69388723373413,-1252.0,-8.0,16520.0,-610.0,-143.0,-234.0,16567.37661791993
26.717100381851196,-1156.0,12.0,16404.0,-623.0,-94.0,-260.0,16444.685950178555
26.740301370620728,-1100.0,0.0,16240.0,-617.0,-15.0,-237.0,16277.211063324085
26.76259756088257,-1140.0,28.0,16344.0,-654.0,20.0,-227.0,16383.733396268386
26.785407066345215,-1080.0,104.0,16412.0,-694.0,89.0,-260.0,16447.82538817822
26.808398246765137,-704.0,72.0,15968.0,-588.0,-161.0,-247.0,15983.673670342498
26.832102060317993,-1052.0,-32.0,16284.0,-615.0,-66.0,-209.0,16317.9773256369
26.855199575424194,-1116.0,24.0,16360.0,-616.0,-94.0,-231.0,16398.03744354793
26.879504680633545,-1248.0,-4.0,16340.0,-604.0,-77.0,-242.0,16387.590426905354
26.90274167060852,-1160.0,-104.0,16356.0,-585.0,-124.0,-224.0,16397.412966684715
26.926717042922974,-1236.0,-32.0,16328.0,-630.0,-114.0,-223.0,16374.745921692953
26.949717044830322,-1224.0,-100.0,16228.0,-568.0,-195.0,-204.0,16274.40198594099
26.972851991653442,-1312.0,-120.0,16496.0,-515.0,-316.0,-214.0,16548.527426934397
26.995553255081177,-1412.0,-44.0,16564.0,-585.0,-158.0,-205.0,16624.132338260544
27.019055604934692,-1228.0,-120.0,16512.0,-570.0,-126.0,-241.0,16558.0351491353
27.04240584373474,-1232.0,72.0,16424.0,-582.0,-145.0,-238.0,16470.300057983157
27.064974784851074,-1116.0,4.0,16436.0,-640.0,-50.0,-236.0,16473.844967098605
27.08808207511902,-1172.0,-16.0,16388.0,-635.0,-43.0,-243.0,16429.86256789752
27.11077094078064,-1124.0,88.0,16380.0,-655.0,28.0,-248.0,16418.7551294244
27.133044481277466,-1172.0,40.0,16276.0,-662.0,14.0,-254.0,16318.191076219202
27.15592312812805,-1148.0,-40.0,16472.0,-646.0,29.0,-229.0,16512.00436046454
27.17867636680603,-1112.0,-52.0,16128.0,-667.0,28.0,-225.0,16166.373495623562
27.20122742652893,-1216.0,-76.0,16312.0,-606.0,-67.0,-229.0,16357.437941193602
27.223987340927124,-1148.0,120.0,16480.0,-626.0,-83.0,-234.0,16520.3723928972
27.246416330337524,-1120.0,24.0,16432.0,-587.0,-120.0,-231.0,16470.142683049227
27.269681930541992,-1204.0,104.0,16384.0,-602.0,-101.0,-238.0,16428.50839242565
27.29220223426819,-1148.0,-76.0,16356.0,-582.0,-154.0,-237.0,16396.41473005608
27.3144793510437,-1200.0,28.0,16408.0,-528.0,-270.0,-211.0,16451.846340152828
27.33700966835022,-1304.0,-76.0,16480.0,-573.0,-172.0,-205.0,16531.684487673963
27.35964059829712,-1264.0,44.0,16332.0,-575.0,-175.0,-214.0,16380.899120622164
27.382585525512695,-1120.0,-40.0,16408.0,-586.0,-142.0,-214.0,16446.22947669161
27.40527105331421,-1188.0,-20.0,16412.0,-583.0,-144.0,-246.0,16454.953296803975
27.42769956588745,-1152.0,28.0,16380.0,-579.0,-78.0,-246.0,16420.48379311645
27.45060086250305,-1176.0,68.0,16296.0,-620.0,-64.0,-231.0,16338.519394363737
27.473156929016113,-1184.0,-4.0,16412.0,-634.0,0.0,-243.0,16454.653323604238
27.49673891067505,-1108.0,24.0,16428.0,-699.0,94.0,-260.0,16465.34008151669
27.519635915756226,-1548.0,-132.0,16572.0,-493.0,-412.0,-227.0,16644.666172681264
27.542211294174194,-1312.0,-112.0,16488.0,-546.0,-272.0,-221.0,16540.496727728583
27.564608812332153,-1260.0,8.0,16420.0,-599.0,-88.0,-209.0,16468.274469415428
27.58736824989319,-1200.0,-116.0,16380.0,-620.0,-131.0,-224.0,16424.306865131326
27.609987258911133,-1160.0,12.0,16428.0,-625.0,-72.0,-238.0,16468.907917648943
27.632923364639282,-1092.0,36.0,16332.0,-594.0,-101.0,-208.0,16368.505857285814
27.65537738800049,-1184.0,-52.0,16348.0,-616.0,-98.0,-233.0,16390.9018665844
27.678284406661987,-1120.0,12.0,16332.0,-572.0,-185.0,-221.0,16370.36248835071
27.707717180252075,-972.0,-92.0,16264.0,-626.0,-22.0,-225.0,16293.27910520163
27.730161428451538,-1124.0,60.0,16432.0,-576.0,-153.0,-244.0,16470.506974589458
27.752333879470825,-1144.0,-216.0,16380.0,-572.0,-122.0,-248.0,16421.321262310168
27.77444362640381,-980.0,-56.0,16264.0,-611.0,-87.0,-246.0,16293.594815141316
27.797483682632446,-1180.0,-72.0,16368.0,-623.0,-40.0,-281.0,16410.637038213965
27.821644067764282,-1104.0,168.0,16352.0,-622.0,-41.0,-282.0,16390.086759990016
27.84510850906372,-1136.0,184.0,16312.0,-640.0,-8.0,-259.0,16352.54402226149
27.86820673942566,-1280.0,92.0,16308.0,-663.0,69.0,-247.0,16358.414593107731
27.892444610595703,-1172.0,-36.0,16500.0,-653.0,53.0,-226.0,16541.610562457332
27.915226459503174,-796.0,108.0,16152.0,-689.0,75.0,-246.0,16171.962898794938
27.938804864883423,-1092.0,-16.0,16308.0,-627.0,-15.0,-227.0,16344.527646891482
27.961973190307617,-1264.0,36.0,16456.0,-626.0,-79.0,-230.0,16504.512352687067
27.98940896987915,-1132.0,-80.0,16252.0,-620.0,-115.0,-223.0,16291.572299811949
28.016684532165527,-1128.0,-64.0,16368.0,-598.0,-109.0,-234.0,16406.946821392456
28.040836811065674,-1164.0,64.0,16300.0,-603.0,-123.0,-226.0,16341.633700459694
28.063878059387207,-1124.0,28.0,16328.0,-605.0,-100.0,-235.0,16366.665634758963
28.087340831756592,-1256.0,76.0,16420.0,-590.0,-111.0,-232.0,16468.142336037785
28.11074662208557,-1164.0,20.0,16432.0,-607.0,-81.0,-235.0,16473.18791248373
28.13451361656189,-1200.0,-84.0,16440.0,-616.0,-101.0,-231.0,16483.951468018826
28.15851378440857,-1272.0,-40.0,16472.0,-610.0,-28.0,-228.0,16521.088583988647
28.181990146636963,-1084.0,-12.0,16412.0,-633.0,-46.0,-236.0,16447.764103366757
28.204725742340088,-1120.0,0.0,16412.0,-639.0,-26.0,-222.0,16450.171549257473
28.228797435760498,-1176.0,-52.0,16416.0,-627.0,-40.0,-238.0,16458.151050467364
28.252925872802734,-1164.0,-40.0,16392.0,-650.0,-43.0,-258.0,16433.32467883477
28.276571035385132,-1248.0,-16.0,16440.0,-618.0,-53.0,-234.0,16487.309058788218
28.300360679626465,-1128.0,-60.0,16364.0,-652.0,-82.0,-241.0,16402.941199675137
28.32410764694214,-1140.0,-48.0,16392.0,-645.0,-90.0,-230.0,16431.663579808344
28.34787654876709,-1136.0,104.0,16364.0,-613.0,-40.0,-237.0,16403.713238166532
28.373048543930054,-1156.0,28.0,16252.0,-627.0,-35.0,-240.0,16293.085159048302
28.397825479507446,-1060.0,-32.0,16456.0,-617.0,-56.0,-224.0,16490.13523292032
28.422484874725342,-1228.0,36.0,16244.0,-603.0,-58.0,-220.0,16290.390296122436
28.449107885360718,-1224.0,40.0,16388.0,-607.0,-91.0,-232.0,16433.694654580875
28.47402286529541,-1180.0,-92.0,16368.0,-599.0,-55.0,-249.0,16410.73697309173
28.498722553253174,-1116.0,0.0,16416.0,-608.0,-82.0,-218.0,16453.890482192957
28.52351427078247,-1148.0,-20.0,16444.0,-625.0,-55.0,-231.0,16484.03591357408
28.54815101623535,-1172.0,-116.0,16320.0,-623.0,-79.0,-235.0,16362.43991585607
28.572253227233887,-1168.0,24.0,16420.0,-621.0,-88.0,-224.0,16461.506613915994
28.596614599227905,-1224.0,0.0,16412.0,-616.0,-95.0,-223.0,16457.579408892427
28.620572805404663,-1068.0,-4.0,16452.0,-604.0,-93.0,-220.0,16486.6292491825
28.645431995391846,-1144.0,64.0,16492.0,-605.0,-142.0,-211.0,16531.754171895976
28.669257640838623,-1164.0,-104.0,16368.0,-603.0,-87.0,-227.0,16409.66593200483
28.692482709884644,-1188.0,16.0,16224.0,-652.0,1.0,-260.0,16267.445281911969
28.716082096099854,-1216.0,-8.0,16360.0,-679.0,16.0,-230.0,16405.130904689544
28.73938798904419,-1360.0,-64.0,16504.0,-572.0,-196.0,-229.0,16560.063767993164
28.763280630111694,-1252.0,0.0,16436.0,-597.0,-94.0,-235.0,16483.61610812385
28.786633729934692,-1320.0,-132.0,16408.0,-629.0,-53.0,-217.0,16461.539660675728
28.810806035995483,-1176.0,-48.0,16452.0,-611.0,-92.0,-231.0,16494.046926088213
28.83401083946228,-1212.0,40.0,16300.0,-609.0,-99.0,-227.0,16345.046466743372
28.857222318649292,-1172.0,-12.0,16360.0,-631.0,-31.0,-233.0,16401.930618070546
28.881184101104736,-1224.0,72.0,16424.0,-633.0,-38.0,-236.0,16469.703579603367
28.905327081680298,-1072.0,-4.0,16360.0,-596.0,-71.0,-235.0,16395.084629241777
28.929245233535767,-1200.0,20.0,16360.0,-632.0,-27.0,-212.0,16403.96293582743
28.952828407287598,-1136.0,-56.0,16372.0,-613.0,-46.0,-224.0,16411.459898497757
28.975849866867065,-1156.0,-100.0,16336.0,-617.0,-74.0,-237.0,16377.155797024097
28.99836754798889,-1284.0,36.0,16408.0,-639.0,-78.0,-222.0,16458.20208892818
29.021340131759644,-1184.0,-36.0,16304.0,-636.0,-104.0,-239.0,16346.974276605442
29.043752908706665,-1188.0,-80.0,16452.0,-586.0,-132.0,-225.0,16495.031009367638
29.066303968429565,-1104.0,-60.0,16444.0,-577.0,-182.0,-215.0,16481.12714592057
29.088928699493408,-1084.0,-68.0,16396.0,-628.0,-24.0,-228.0,16431.93524816843
29.113840103149414,-1120.0,24.0,16324.0,-655.0,-23.0,-243.0,16362.394445801629
29.14021134376526,-1108.0,-64.0,16268.0,-581.0,-69.0,-242.0,16305.814423082338
29.16455578804016,-1184.0,-12.0,16452.0,-626.0,-49.0,-248.0,16494.553767835005
29.188910722732544,-1100.0,144.0,16356.0,-634.0,-26.0,-218.0,16393.580206898067
29.213831186294556,-1208.0,-12.0,16440.0,-636.0,-77.0,-238.0,16484.326131207185
29.239786624908447,-1132.0,-68.0,16272.0,-624.0,-87.0,-225.0,16311.469339087758
29.264365434646606,-996.0,8.0,16280.0,-670.0,20.0,-253.0,16310.440827886903
29.287709951400757,-976.0,68.0,16436.0,-599.0,-91.0,-204.0,16465.09325816286
29.311133861541748,-1156.0,-104.0,16276.0,-597.0,-119.0,-213.0,16317.332134880384
29.335386753082275,-1208.0,-140.0,16384.0,-621.0,-77.0,-224.0,16429.06935891379
29.358721494674683,-1020.0,4.0,16512.0,-639.0,-37.0,-235.0,16543.474846597375
29.383021116256714,-1108.0,-72.0,16348.0,-608.0,-173.0,-227.0,16385.663001538876
29.407585382461548,-1264.0,-88.0,16540.0,-622.0,-107.0,-224.0,16588.461049777947
29.431640148162842,-1172.0,40.0,16388.0,-599.0,-96.0,-244.0,16429.90346897997
29.455642223358154,-1232.0,-52.0,16456.0,-620.0,-85.0,-234.0,16502.13513458183
29.479195833206177,-1168.0,-20.0,16432.0,-611.0,-100.0,-249.0,16473.471036791245
29.50235605239868,-1124.0,40.0,16400.0,-619.0,-77.0,-253.0,16438.52110136432
29.526477575302124,-1192.0,-40.0,16460.0,-625.0,-73.0,-262.0,16503.153153261348
29.549447059631348,-1224.0,12.0,16496.0,-611.0,-56.0,-260.0,16541.352302638377
29.572248458862305,-1236.0,-60.0,16372.0,-627.0,-28.0,-233.0,16418.699095848002
29.5950825214386,-1188.0,8.0,16316.0,-635.0,-35.0,-224.0,16359.195090223724
29.6194109916687,-1116.0,-60.0,16356.0,-648.0,0.0,-214.0,16394.13895268672
29.646539211273193,-1100.0,-28.0,16260.0,-644.0,-28.0,-258.0,16297.189450945216
29.670971393585205,-1124.0,20.0,16460.0,-625.0,-30.0,-204.0,16498.34464423628
29.694353580474854,-1144.0,52.0,16140.0,-621.0,-103.0,-246.0,16180.576009524506
29.71779179573059,-1028.0,-40.0,16376.0,-591.0,-64.0,-244.0,16408.283274005236
29.740944862365723,-1072.0,24.0,16436.0,-630.0,-60.0,-242.0,16470.939742467643
29.76400637626648,-1136.0,88.0,16320.0,-645.0,-72.0,-221.0,16359.726159077358
29.78716206550598,-1076.0,-148.0,16368.0,-619.0,-55.0,-237.0,16403.996586198133
29.811063766479492,-1096.0,-168.0,16404.0,-621.0,-68.0,-221.0,16441.4310812654
29.834887742996216,-1324.0,-52.0,16520.0,-624.0,-99.0,-221.0,16573.052826802912
29.862395524978638,-1212.0,-100.0,16412.0,-645.0,-98.0,-267.0,16456.995108463758
29.887858390808105,-1156.0,-28.0,16380.0,-603.0,-96.0,-233.0,16420.764903012285
29.912363052368164,-1124.0,-12.0,16536.0,-612.0,-103.0,-217.0,16574.16109490915
29.936710357666016,-1116.0,20.0,16312.0,-596.0,-101.0,-220.0,16350.143730255095
29.959790468215942,-1164.0,12.0,16440.0,-588.0,-123.0,-224.0,16481.160153338722
29.983599424362183,-1140.0,12.0,16560.0,-618.0,-84.0,-228.0,16599.197089016085
30.006497383117676,-1100.0,132.0,16376.0,-606.0,-112.0,-215.0,16413.433522575342
30.032560110092163,-1164.0,24.0,16440.0,-609.0,-66.0,-219.0,16481.173259207004
30.05584740638733,-1176.0,-16.0,16332.0,-640.0,-43.0,-239.0,16374.292534335644
30.078845739364624,-1200.0,-88.0,16456.0,-627.0,-36.0,-251.0,16499.929696819923
30.101964473724365,-1216.0,-64.0,16412.0,-612.0,-35.0,-252.0,16457.110803540214
30.12537908554077,-1168.0,-8.0,16440.0,-627.0,-45.0,-266.0,16481.440713724027
30.15101981163025,-1208.0,36.0,16400.0,-628.0,-47.0,-252.0,16444.46897896068
30.174405574798584,-1212.0,-112.0,16428.0,-629.0,-59.0,-241.0,16473.028622569684
30.199223518371582,-1084.0,-4.0,16396.0,-658.0,-51.0,-240.0,16431.7950328015
30.224257230758667,-1216.0,8.0,16240.0,-662.0,-42.0,-237.0,16285.46345671501
30.248145818710327,-1264.0,8.0,16436.0,-623.0,25.0,-233.0,16484.533842362664
30.271209955215454,-1220.0,0.0,16372.0,-611.0,-66.0,-237.0,16417.392728445036
30.293949365615845,-1116.0,12.0,16480.0,-628.0,-49.0,-227.0,16517.748030527648
30.31724739074707,-1108.0,92.0,16324.0,-620.0,-75.0,-246.0,16361.818480841303
30.340725898742676,-1112.0,-88.0,16364.0,-599.0,-95.0,-259.0,16401.97500302936
30.363735675811768,-1224.0,96.0,16448.0,-618.0,-77.0,-242.0,16493.759304658233
30.386879682540894,-1108.0,-80.0,16508.0,-614.0,-58.0,-221.0,16545.335536035527
30.41233205795288,-1168.0,-44.0,16492.0,-602.0,-70.0,-233.0,16533.366989213057
30.435956239700317,-1172.0,-96.0,16484.0,-586.0,-110.0,-249.0,16525.89047525125
30.45882225036621,-1152.0,12.0,16316.0,-622.0,-84.0,-213.0,16356.622634272639
30.481973886489868,-1220.0,-24.0,16404.0,-595.0,-98.0,-241.0,16449.321931313763
30.506486415863037,-1128.0,12.0,16520.0,-613.0,-91.0,-228.0,16558.469977627763
30.531126737594604,-1128.0,36.0,16288.0,-651.0,-114.0,-233.0,16327.051907800134
30.554664373397827,-1088.0,32.0,16416.0,-601.0,-126.0,-215.0,16452.046194926636
30.577361345291138,-1072.0,-68.0,16520.0,-601.0,-100.0,-241.0,16554.88471720658
30.60048532485962,-1236.0,12.0,16276.0,-621.0,-67.0,-231.0,16322.867885270653
30.624756336212158,-1200.0,16.0,16352.0,-605.0,-75.0,-217.0,16395.97999510856
30.648730278015137,-1200.0,-48.0,16524.0,-631.0,-53.0,-215.0,16567.585219337187
30.671860218048096,-1256.0,-8.0,16444.0,-636.0,-57.0,-230.0,16491.899102286552
30.695824146270752,-1160.0,-32.0,16492.0,-603.0,-47.0,-234.0,16532.77617340778
30.718726873397827,-1212.0,40.0,16272.0,-610.0,-58.0,-241.0,16317.123766154376
30.741492748260498,-1024.0,-60.0,16272.0,-617.0,-82.0,-237.0,16304.298819636495
30.76533317565918,-1068.0,32.0,16280.0,-639.0,-50.0,-219.0,16315.025222168675
30.788801908493042,-1236.0,-16.0,16440.0,-621.0,-95.0,-242.0,16486.40506599301
30.811768770217896,-1116.0,-52.0,16392.0,-618.0,-47.0,-240.0,16430.02811926991
30.83479928970337,-1144.0,0.0,16316.0,-606.0,-76.0,-252.0,16356.056737490244
30.85873508453369,-1120.0,24.0,16380.0,-623.0,-108.0,-223.0,16418.263489175704
30.8825101852417,-1140.0,36.0,16440.0,-623.0,-76.0,-237.0,16479.51746866394
30.906052112579346,-1144.0,-72.0,16356.0,-605.0,-96.0,-235.0,16396.117101313957
30.92941451072693,-1192.0,-56.0,16488.0,-608.0,-74.0,-240.0,16531.1265193876
30.952614307403564,-1268.0,68.0,16260.0,-630.0,-47.0,-255.0,16309.507901834439
30.975913524627686,-1220.0,88.0,16272.0,-615.0,-51.0,-244.0,16317.908199276033
30.99944543838501,-1188.0,28.0,16332.0,-614.0,-70.0,-239.0,16375.17486929529
31.0229332447052,-1052.0,64.0,16384.0,-632.0,-51.0,-214.0,16417.86392926924
31.046506643295288,-1196.0,-24.0,16452.0,-632.0,-84.0,-260.0,16495.432579959823
31.069520473480225,-1084.0,-32.0,16240.0,-613.0,-54.0,-242.0,16276.1690824346
31.092928647994995,-1188.0,-64.0,16572.0,-607.0,-75.0,-236.0,16614.650884084203
31.11597752571106,-1236.0,36.0,16384.0,-615.0,-38.0,-239.0,16430.594876631825
31.140756607055664,-1244.0,-60.0,16432.0,-628.0,-86.0,-255.0,16479.1310450521
31.166327476501465,-1168.0,-52.0,16368.0,-633.0,-39.0,-236.0,16409.702983296193
31.190082550048828,-1136.0,-40.0,16416.0,-641.0,-56.0,-244.0,16455.30771514164
31.213805198669434,-1148.0,60.0,16424.0,-609.0,-92.0,-234.0,16464.181728831834
31.238202810287476,-1124.0,-4.0,16384.0,-596.0,-60.0,-232.0,16422.510404928962
31.26163601875305,-1188.0,-92.0,16400.0,-618.0,-68.0,-253.0,16443.229853042863
31.28500747680664,-1088.0,-48.0,16360.0,-599.0,-79.0,-219.0,16396.208342174723
31.307950496673584,-1084.0,20.0,16448.0,-617.0,-64.0,-252.0,16483.69376080495
31.33208990097046,-1224.0,-36.0,16412.0,-632.0,-44.0,-245.0,16457.61878280087
31.355142831802368,-1172.0,-120.0,16212.0,-608.0,-74.0,-233.0,16254.750936264758
31.37858557701111,-1264.0,136.0,16468.0,-629.0,-71.0,-235.0,16516.99779015545
31.401875495910645,-1104.0,-16.0,16296.0,-602.0,-73.0,-212.0,16333.361197255144
31.42670202255249,-1284.0,60.0,16380.0,-616.0,-66.0,-224.0,16430.35775629977
31.449608087539673,-1108.0,52.0,16452.0,-627.0,-55.0,-241.0,16489.350260092117
31.47250461578369,-1144.0,96.0,16224.0,-635.0,-65.0,-239.0,16264.566640399615
31.49596929550171,-1236.0,60.0,16360.0,-630.0,-73.0,-232.0,16406.73325193044
31.519725561141968,-1084.0,-124.0,16392.0,-635.0,-83.0,-220.0,16428.271241977956
31.54303550720215,-1184.0,-12.0,16336.0,-624.0,-44.0,-214.0,16378.855149246543
31.56480598449707,-1152.0,-64.0,16292.0,-594.0,-62.0,-253.0,16332.803311128191
31.587138175964355,-1176.0,72.0,16300.0,-593.0,-81.0,-217.0,16342.526120523718
31.610230684280396,-1204.0,124.0,16416.0,-606.0,-69.0,-229.0,16460.560379282353
31.633822917938232,-1196.0,4.0,16508.0,-603.0,-72.0,-208.0,16551.26871269994
31.655295848846436,-1180.0,84.0,16448.0,-580.0,-101.0,-250.0,16490.48695460507
31.677494764328003,-1144.0,-24.0,16376.0,-600.0,-137.0,-245.0,16415.92787508522
31.699177503585815,-1240.0,40.0,16256.0,-606.0,-94.0,-231.0,16303.273781667289
31.72136640548706,-1152.0,-64.0,16404.0,-632.0,-51.0,-248.0,16444.525411212086
31.743082523345947,-1156.0,48.0,16304.0,-649.0,-64.0,-225.0,16345.000948302206
31.764820337295532,-1224.0,-28.0,16296.0,-642.0,-36.0,-232.0,16341.926936564121
31.787534713745117,-1156.0,16.0,16376.0,-639.0,-1.0,-239.0,16416.75875439485
31.809643268585205,-1176.0,12.0,16296.0,-610.0,-42.0,-226.0,16338.382294462326
31.832003831863403,-1120.0,-36.0,16452.0,-628.0,-97.0,-228.0,16490.118253062952
31.85430598258972,-1156.0,12.0,16404.0,-580.0,-137.0,-234.0,16444.685950178555
31.881317615509033,-1140.0,0.0,16296.0,-607.0,-116.0,-245.0,16335.826149907449
31.904093980789185,-1140.0,16.0,16300.0,-600.0,-79.0,-220.0,16339.824234060781
31.92708396911621,-1184.0,0.0,16456.0,-640.0,-39.0,-221.0,16498.539086840385
31.949780464172363,-1108.0,-28.0,16292.0,-626.0,-38.0,-243.0,16329.657436700869
31.971487522125244,-1168.0,32.0,16372.0,-621.0,-66.0,-216.0,16413.641643462306
31.992934942245483,-1116.0,28.0,16356.0,-587.0,-104.0,-215.0,16394.053068109788
32.015034914016724,-1220.0,52.0,16332.0,-604.0,-64.0,-224.0,16377.586146926536
32.036927223205566,-1180.0,-40.0,16352.0,-643.0,-62.0,-235.0,16394.569344755597
32.059077501297,-1148.0,-52.0,16332.0,-638.0,-67.0,-229.0,16372.380156837307
32.08153295516968,-1092.0,8.0,16336.0,-617.0,-27.0,-252.0,16372.459314348593
32.10313153266907,-1220.0,44.0,16360.0,-616.0,-64.0,-230.0,16405.484936447323
32.12507367134094,-1240.0,-96.0,16368.0,-615.0,-111.0,-247.0,16415.18321554773
32.147414207458496,-1144.0,20.0,16512.0,-588.0,-128.0,-237.0,16551.594485124388
32.16965842247009,-1208.0,-4.0,16372.0,-585.0,-132.0,-238.0,16416.505840159774
32.19201922416687,-968.0,-20.0,16128.0,-677.0,53.0,-257.0,16157.035866767146
32.21321725845337,-960.0,-64.0,16220.0,-657.0,51.0,-226.0,16248.510577896055
32.23500847816467,-1192.0,-12.0,16472.0,-625.0,-62.0,-221.0,16515.0777170439
32.2571165561676,-1060.0,-36.0,16404.0,-626.0,-30.0,-230.0,16438.25148852517
32.27903723716736,-1168.0,28.0,16348.0,-657.0,-34.0,-228.0,16389.69529918113
32.3006317615509,-1116.0,-28.0,16512.0,-665.0,-17.0,-239.0,16549.694377842752
32.32210111618042,-1204.0,28.0,16456.0,-618.0,-54.0,-238.0,16500.01018181504
32.344565868377686,-1220.0,-52.0,16468.0,-636.0,-67.0,-204.0,16513.210711427382
32.36689805984497,-1092.0,-16.0,16396.0,-621.0,-51.0,-220.0,16432.33203169897
32.38915395736694,-1120.0,36.0,16344.0,-642.0,-78.0,-238.0,16382.3695477791
32.410736083984375,-1272.0,-28.0,16572.0,-620.0,-69.0,-219.0,16620.76869461819
32.432435512542725,-1264.0,-44.0,16332.0,-609.0,-52.0,-200.0,16380.899120622164
32.454713106155396,-1176.0,40.0,16424.0,-570.0,-133.0,-236.0,16466.097048177508
32.47597050666809,-1180.0,24.0,16492.0,-617.0,-93.0,-233.0,16534.177935416083
32.51618981361389,-1196.0,-96.0,16496.0,-624.0,-44.0,-234.0,16539.578229205243
32.53867530822754,-1100.0,-20.0,16256.0,-608.0,-51.0,-238.0,16293.186796940616
32.560988426208496,-1168.0,-4.0,16240.0,-610.0,-69.0,-230.0,16281.948286369172
32.582375049591064,-1124.0,76.0,16444.0,-615.0,-66.0,-224.0,16482.544949127245
32.603996992111206,-1192.0,8.0,16304.0,-586.0,-83.0,-244.0,16347.517976744972
32.62739419937134,-1208.0,4.0,16300.0,-611.0,-77.0,-233.0,16344.701893885982
32.65014696121216,-1168.0,-8.0,16388.0,-612.0,-98.0,-233.0,16429.57187512809
32.67199897766113,-1180.0,-68.0,16428.0,-604.0,-63.0,-237.0,16470.46471718391
32.69332718849182,-1164.0,28.0,16324.0,-626.0,-86.0,-232.0,16365.471456698093
32.715041399002075,-1144.0,-92.0,16244.0,-644.0,-58.0,-231.0,16284.493728697862
32.73748159408569,-1184.0,52.0,16436.0,-640.0,-26.0,-246.0,16478.67276208858
32.759272813797,-1044.0,-36.0,16384.0,-627.0,-60.0,-233.0,16417.26798221921
32.780985593795776,-1240.0,-28.0,16364.0,-612.0,-72.0,-234.0,16410.937815981146
32.80403804779053,-1220.0,36.0,16412.0,-615.0,-87.0,-228.0,16457.321774821077
32.82634687423706,-1088.0,12.0,16288.0,-587.0,-102.0,-246.0,16324.301884001043
32.84930896759033,-1196.0,20.0,16412.0,-628.0,-60.0,-220.0,16455.53280814693
32.87186002731323,-1288.0,36.0,16436.0,-642.0,-18.0,-234.0,16486.428843142472
32.89501142501831,-1192.0,32.0,16368.0,-625.0,-29.0,-232.0,16411.377516832643
32.91749095916748,-1120.0,96.0,16312.0,-681.0,114.0,-237.0,16350.686835726505
32.93968653678894,-1256.0,28.0,16352.0,-653.0,-18.0,-227.0,16400.18975499979
32.961907625198364,-1176.0,-112.0,16384.0,-607.0,-127.0,-245.0,16426.53268343627
32.98355031013489,-1108.0,-88.0,16384.0,-616.0,-64.0,-243.0,16421.65838153991
33.00543260574341,-1144.0,0.0,16264.0,-617.0,-78.0,-214.0,16304.184493558701
33.029396772384644,-1316.0,80.0,16304.0,-622.0,-55.0,-251.0,16357.220790831187
33.05248951911926,-1160.0,0.0,16376.0,-624.0,-10.0,-229.0,16417.033105893403
33.074142932891846,-1232.0,-44.0,16284.0,-589.0,-161.0,-220.0,16330.597539588072
33.09550213813782,-1144.0,-4.0,16332.0,-569.0,-147.0,-223.0,16372.018079638197
33.1176381111145,-1252.0,-4.0,16248.0,-624.0,-90.0,-218.0,16296.165929444876
33.1395947933197,-1092.0,-20.0,16344.0,-582.0,-133.0,-224.0,16380.451764221889
33.16194725036621,-1084.0,-36.0,16560.0,-572.0,-121.0,-229.0,16595.47986651787
33.18377470970154,-1184.0,-8.0,16428.0,-639.0,-47.0,-238.0,16470.613346199345
33.205185890197754,-1272.0,-44.0,16464.0,-639.0,-54.0,-243.0,16513.122539362445
33.22751498222351,-1076.0,64.0,16424.0,-593.0,-71.0,-238.0,16459.33315781657
33.25074887275696,-1172.0,-100.0,16516.0,-600.0,-50.0,-229.0,16557.833191574315
33.273476362228394,-1136.0,-164.0,16076.0,-600.0,-126.0,-237.0,16116.921790466069
33.29554224014282,-1152.0,-12.0,16600.0,-602.0,-30.0,-248.0,16639.929326772995
33.31768441200256,-1156.0,-48.0,15924.0,-608.0,-79.0,-218.0,15965.976825737911
33.34069323539734,-1112.0,-36.0,16168.0,-590.0,-95.0,-232.0,16206.23534322515
33.36569595336914,-1144.0,44.0,16500.0,-599.0,-49.0,-202.0,16539.66964603586
33.38891267776489,-1208.0,16.0,16468.0,-612.0,-40.0,-227.0,16512.254358505987
33.41212797164917,-1196.0,-28.0,16400.0,-637.0,-72.0,-214.0,16443.576253358027
33.43564510345459,-1112.0,-44.0,16208.0,-612.0,-96.0,-231.0,16246.160900348119
33.45889115333557,-1148.0,-68.0,16588.0,-599.0,-85.0,-222.0,16627.816212599897
33.48263740539551,-1180.0,56.0,16372.0,-608.0,-64.0,-215.0,16414.564264701028
33.50537419319153,-1232.0,-188.0,16272.0,-636.0,-48.0,-210.0,16319.655388518471
33.52998447418213,-1216.0,28.0,16560.0,-628.0,-45.0,-224.0,16604.60899870876
33.55414652824402,-1072.0,20.0,16488.0,-607.0,-72.0,-256.0,16522.82445588526
33.577322244644165,-1164.0,72.0,16364.0,-616.0,-76.0,-235.0,16405.504442107227
33.601104497909546,-1200.0,4.0,16320.0,-601.0,-41.0,-251.0,16364.058665257833
33.6244900226593,-1200.0,88.0,16348.0,-619.0,-61.0,-232.0,16392.219129818877
33.64894914627075,-1260.0,24.0,16552.0,-608.0,-67.0,-236.0,16599.906023830375
33.672271490097046,-1168.0,-36.0,16360.0,-619.0,-76.0,-249.0,16401.68040171494
33.696974754333496,-1112.0,-56.0,16444.0,-615.0,-78.0,-233.0,16481.650888184715
33.719908237457275,-1220.0,-68.0,16444.0,-633.0,-75.0,-218.0,16489.334734912747
