time_seconds,ax,ay,az,gx,gy,gz,motion_magnitude
0.09702658653259277,-1196.0,-4.0,16268.0,-590.0,-68.0,-216.0,16311.905345483096
0.16109371185302734,-1104.0,-16.0,16444.0,-602.0,-83.0,-217.0,16481.025696236262
0.19179511070251465,-1092.0,-12.0,16320.0,-608.0,-90.0,-227.0,16356.49742457107
0.2208876609802246,-1144.0,64.0,16308.0,-628.0,-69.0,-245.0,16348.201613633226
0.24897336959838867,-1156.0,-104.0,16468.0,-619.0,-82.0,-240.0,16508.851443998155
0.27877140045166016,-1288.0,-48.0,16416.0,-605.0,-73.0,-251.0,16466.520701107445
0.3081934452056885,-1112.0,-56.0,16492.0,-617.0,-46.0,-243.0,16529.54155444125
0.33620572090148926,-1076.0,-64.0,16324.0,-608.0,-37.0,-257.0,16359.549138041672
0.36327576637268066,-1088.0,-32.0,16400.0,-645.0,-29.0,-250.0,16436.081284783184
0.3916444778442383,-1160.0,-32.0,16456.0,-646.0,-22.0,-254.0,16496.865156750235
0.41912245750427246,-1108.0,4.0,16432.0,-649.0,-41.0,-264.0,16469.31401121492
0.446108341217041,-1236.0,0.0,16420.0,-635.0,-26.0,-225.0,16466.453655842233
0.47497010231018066,-1116.0,-60.0,16416.0,-627.0,-74.0,-239.0,16453.99987844901
0.5015082359313965,-976.0,-8.0,16328.0,-594.0,-105.0,-239.0,16357.145961322225
0.5299692153930664,-1036.0,16.0,16324.0,-515.0,-341.0,-208.0,16356.849574413773
0.5568103790283203,-1128.0,164.0,16252.0,-651.0,14.0,-250.0,16291.923888847505
0.5808298587799072,-1104.0,-4.0,16292.0,-556.0,-197.0,-227.0,16329.36300043575
0.6057939529418945,-1120.0,-32.0,16388.0,-562.0,-252.0,-219.0,16426.25849059974
0.6301496028900146,-1020.0,16.0,16320.0,-607.0,-90.0,-231.0,16351.851760580512
0.6526434421539307,-984.0,-136.0,16348.0,-561.0,-195.0,-240.0,16378.151788281852
0.6749899387359619,-1136.0,-64.0,16516.0,-544.0,-215.0,-224.0,16555.1456653211
0.6985037326812744,-1112.0,-28.0,16600.0,-535.0,-292.0,-199.0,16637.227172819395
0.7230582237243652,-916.0,-20.0,16332.0,-474.0,-283.0,-201.0,16357.67954203774
0.748103141784668,-964.0,132.0,16136.0,-560.0,-125.0,-234.0,16165.309028905076
0.7711424827575684,-1060.0,-112.0,16352.0,-485.0,-255.0,-234.0,16386.70339024906
0.794597864151001,-1052.0,-156.0,16320.0,-551.0,-224.0,-252.0,16354.61525074803
0.8189976215362549,-988.0,-56.0,16100.0,-616.0,-80.0,-251.0,16130.383752409612
0.8430726528167725,-1112.0,96.0,16404.0,-615.0,-112.0,-238.0,16441.927380936824
0.8668704032897949,-1076.0,-248.0,16328.0,-595.0,-138.0,-176.0,16365.294497808465
0.8918402194976807,-980.0,4.0,16368.0,-645.0,-63.0,-83.0,16397.311974832948
0.9171595573425293,-1100.0,-216.0,16384.0,-549.0,-208.0,1.0,16422.30531929059
0.9391584396362305,-1184.0,-96.0,16408.0,-639.0,-69.0,93.0,16450.94331641806
0.960993766784668,-960.0,88.0,16388.0,-620.0,-105.0,123.0,16416.32991871204
0.9829251766204834,-992.0,192.0,16440.0,-625.0,-148.0,98.0,16471.02085482257
1.006335973739624,-1036.0,-152.0,16312.0,-551.0,-240.0,-11.0,16345.572611566717
1.0286870002746582,-1052.0,-156.0,16444.0,-568.0,-215.0,-19.0,16478.354772245923
1.0514132976531982,-1048.0,-4.0,16324.0,-565.0,-244.0,-47.0,16357.606670903908
1.074275016784668,-1016.0,-188.0,16232.0,-490.0,-299.0,-90.0,16264.852412487486
1.0978944301605225,-848.0,380.0,16340.0,-676.0,1.0,-282.0,16366.401681493706
1.1213841438293457,-1020.0,404.0,16456.0,-493.0,-246.0,-324.0,16492.530187936598
1.1452982425689697,-1032.0,180.0,16372.0,-609.0,-109.0,-321.0,16405.481035312558
1.170851230621338,-1480.0,600.0,17056.0,-1032.0,534.0,-375.0,17130.60232449519
1.1959497928619385,-864.0,220.0,16236.0,-437.0,-398.0,-198.0,16260.46100207494
1.219416618347168,-1104.0,-140.0,16908.0,-567.0,-123.0,-242.0,16944.5826151015
1.2428936958312988,-996.0,-52.0,15976.0,-560.0,-198.0,-260.0,16007.101424055512
1.2675621509552002,-932.0,-192.0,16436.0,-496.0,-288.0,-344.0,16463.522830791713
1.2910969257354736,-64.0,1392.0,15016.0,-1222.0,1244.0,-465.0,15080.517762994745
1.3164691925048828,-1448.0,-188.0,16724.0,-66.0,-944.0,-143.0,16787.621153695363
1.341681718826294,-860.0,-464.0,16568.0,-659.0,-66.0,-399.0,16596.792461195626
1.36720609664917,-776.0,64.0,16148.0,-624.0,-15.0,-479.0,16166.761456766782
1.3927197456359863,-996.0,124.0,16460.0,-468.0,-264.0,-519.0,16490.57282207019
1.4179997444152832,-956.0,108.0,16320.0,-633.0,5.0,-553.0,16348.333248377341
1.4439759254455566,-1036.0,36.0,16388.0,-526.0,-211.0,-413.0,16420.753210495554
1.4697692394256592,-916.0,228.0,16304.0,-631.0,-35.0,-466.0,16331.302948632114
1.4961655139923096,-1016.0,60.0,16344.0,-586.0,-85.0,-368.0,16375.658521109923
1.5220823287963867,-748.0,-108.0,16380.0,-553.0,-107.0,-396.0,16397.42565160763
1.5476644039154053,-868.0,-36.0,16368.0,-630.0,-16.0,-391.0,16391.03852719528
1.575105905532837,-952.0,104.0,16492.0,-574.0,-172.0,-409.0,16519.781596619247
1.601654052734375,-956.0,-64.0,16532.0,-575.0,-39.0,-350.0,16559.742026976146
1.6279017925262451,-1024.0,24.0,16284.0,-566.0,-116.0,-371.0,16316.182396626975
1.6561391353607178,-1644.0,-296.0,18428.0,-860.0,445.0,-289.0,18503.55468551921
1.6830224990844727,-720.0,-8.0,15720.0,-555.0,-216.0,-225.0,15736.481944831252
1.7107865810394287,-972.0,120.0,16408.0,-530.0,-225.0,-262.0,16437.20316842254
1.736572265625,-1168.0,-16.0,16536.0,-727.0,66.0,-263.0,16577.206519796993
1.7612569332122803,-940.0,124.0,16136.0,-705.0,92.0,-229.0,16163.832218876809
1.7879152297973633,-820.0,-4.0,16532.0,-745.0,128.0,-253.0,16552.32430808435
1.814058542251587,-932.0,88.0,16324.0,-790.0,381.0,-279.0,16350.8208968235
1.8395771980285645,-1100.0,28.0,16308.0,-776.0,218.0,-301.0,16345.08023840813
1.8643584251403809,-1080.0,96.0,16404.0,-665.0,20.0,-273.0,16439.794159295303
1.8909883499145508,-1048.0,-48.0,16332.0,-640.0,-21.0,-228.0,16365.660145560887
1.9159924983978271,-1060.0,-8.0,16396.0,-636.0,-20.0,-235.0,16430.230673974118
1.9408910274505615,-1112.0,16.0,16388.0,-674.0,-25.0,-247.0,16425.691583613763
1.967261791229248,-1124.0,-48.0,16412.0,-588.0,-112.0,-221.0,16450.51439925208
1.994105577468872,-1124.0,4.0,16368.0,-468.0,-297.0,-202.0,16406.54796110382
2.0201914310455322,-932.0,-76.0,16368.0,-525.0,-254.0,-229.0,16394.688896102907
2.0447118282318115,-928.0,4.0,16336.0,-568.0,-143.0,-221.0,16362.337730287809
2.0707361698150635,-1072.0,-24.0,16376.0,-615.0,-119.0,-242.0,16411.06748508457
2.0975937843322754,-1072.0,88.0,16260.0,-588.0,-88.0,-234.0,16295.53705773455
2.1244406700134277,-984.0,104.0,16356.0,-661.0,32.0,-254.0,16385.902721546958
2.1530091762542725,-1084.0,96.0,16380.0,-690.0,32.0,-248.0,16416.110136082785
2.178926706314087,-1000.0,32.0,16364.0,-723.0,144.0,-285.0,16394.557633556327
2.203947067260742,-1044.0,-44.0,16512.0,-716.0,57.0,-263.0,16545.029948597858
2.230933666229248,-1048.0,-32.0,16360.0,-622.0,-130.0,-239.0,16393.563615028917
2.2557554244995117,-1036.0,-48.0,16388.0,-617.0,-55.0,-228.0,16420.783903334213
2.280675172805786,-1044.0,-64.0,16224.0,-622.0,-47.0,-211.0,16257.681507521298
2.3063488006591797,-1048.0,-72.0,16344.0,-645.0,-10.0,-242.0,16377.723407116144
2.3313546180725098,-1108.0,-124.0,16536.0,-566.0,-192.0,-233.0,16573.543254235046
2.3579213619232178,-1012.0,-104.0,16440.0,-445.0,-350.0,-215.0,16471.44680955501
2.383333444595337,-980.0,72.0,16220.0,-482.0,-314.0,-203.0,16249.737967118115
2.4137682914733887,-1048.0,72.0,16500.0,-505.0,-248.0,-224.0,16533.405214897506
2.446992874145508,-900.0,-84.0,16368.0,-583.0,-126.0,-260.0,16392.939943768477
2.4742379188537598,-1008.0,152.0,16472.0,-604.0,-115.0,-302.0,16503.513322926123
2.500713586807251,-1028.0,196.0,16292.0,-679.0,-53.0,-254.0,16325.576988272114
2.525742769241333,-976.0,16.0,16480.0,-728.0,117.0,-257.0,16508.88342680994
2.5528225898742676,-1000.0,16.0,16348.0,-756.0,167.0,-269.0,16378.564039622033
2.5799100399017334,-1120.0,-4.0,16412.0,-665.0,42.0,-236.0,16450.172035574582
2.605030059814453,-1052.0,-60.0,16480.0,-668.0,-9.0,-239.0,16513.65204913801
2.630197048187256,-956.0,20.0,16316.0,-652.0,-34.0,-246.0,16343.995594713062
2.655463457107544,-920.0,-64.0,16516.0,-708.0,105.0,-273.0,16541.727600223625
2.6822216510772705,-1044.0,-60.0,16292.0,-714.0,83.0,-274.0,16325.52602521585
2.7089765071868896,-1092.0,-48.0,16552.0,-639.0,-36.0,-239.0,16588.052085763415
2.7381768226623535,-1072.0,-64.0,16512.0,-441.0,-354.0,-179.0,16546.885628419626
2.7712299823760986,-904.0,-40.0,16272.0,-403.0,-422.0,-189.0,16297.140853536243
2.799915313720703,-980.0,96.0,16372.0,-463.0,-306.0,-199.0,16401.585289233477
2.8300514221191406,-976.0,16.0,16424.0,-561.0,-157.0,-218.0,16452.981735843507
2.855787754058838,-1012.0,-88.0,16252.0,-595.0,-43.0,-285.0,16283.715546520702
2.882537364959717,-1016.0,220.0,16380.0,-629.0,-68.0,-277.0,16412.953908422456
2.9108264446258545,-1052.0,128.0,16424.0,-678.0,16.0,-248.0,16458.15493911757
2.939364194869995,-948.0,96.0,16356.0,-705.0,58.0,-256.0,16383.731443111486
2.966356039047241,-1144.0,-12.0,16520.0,-703.0,30.0,-239.0,16559.567627205728
2.9924018383026123,-972.0,-40.0,16384.0,-682.0,-2.0,-246.0,16412.85593673447
3.0178706645965576,-1060.0,72.0,16460.0,-609.0,-62.0,-245.0,16494.253059778122
3.0432469844818115,-940.0,-4.0,16264.0,-711.0,58.0,-249.0,16291.142133073421
3.0728046894073486,-1048.0,-72.0,16348.0,-771.0,190.0,-271.0,16381.715172716195
3.0978760719299316,-1012.0,-40.0,16592.0,-642.0,27.0,-258.0,16622.882060581433
3.1236419677734375,-1052.0,-120.0,16452.0,-530.0,-275.0,-194.0,16486.036758420745
3.149250030517578,-972.0,-108.0,16436.0,-319.0,-563.0,-189.0,16465.0704219569
3.173954486846924,-856.0,-220.0,16328.0,-377.0,-491.0,-200.0,16351.902641588837
3.1985433101654053,-984.0,40.0,16252.0,-576.0,-195.0,-452.0,16281.810710114523
3.2228519916534424,-1024.0,96.0,16244.0,-637.0,15.0,-426.0,16276.526902260199
3.2478206157684326,-1032.0,152.0,16316.0,-618.0,-55.0,-306.0,16349.311422809218
3.273427963256836,-1024.0,92.0,16388.0,-645.0,-47.0,-269.0,16420.218756155475
3.300473928451538,-932.0,56.0,16404.0,-672.0,-10.0,-271.0,16430.55008208794
3.331557273864746,-1064.0,36.0,16348.0,-765.0,147.0,-293.0,16382.627872231
3.3566324710845947,-888.0,-56.0,16568.0,-647.0,-22.0,-225.0,16591.874637906352
3.382005453109741,-1012.0,-68.0,16428.0,-639.0,-40.0,-248.0,16459.281636815136
3.406834363937378,-996.0,48.0,16296.0,-711.0,68.0,-249.0,16326.479596042742
3.431957244873047,-1020.0,-16.0,16368.0,-789.0,223.0,-262.0,16399.758534807763
3.457063913345337,-1136.0,-16.0,16372.0,-735.0,258.0,-288.0,16411.372154698096
3.482881784439087,-1296.0,-12.0,16412.0,-649.0,-37.0,-224.0,16463.095213233748
3.5083866119384766,-1044.0,-124.0,16292.0,-437.0,-341.0,-213.0,16325.886683423967
3.534182071685791,-960.0,-112.0,16408.0,-385.0,-465.0,-200.0,16436.441464015257
3.5669262409210205,-1060.0,-4.0,16292.0,-428.0,-370.0,-201.0,16326.447255909658
3.5963447093963623,-952.0,-48.0,16416.0,-533.0,-213.0,-236.0,16443.65117606184
3.6272220611572266,-884.0,-36.0,16448.0,-546.0,-139.0,-270.0,16471.777560421342
3.6595680713653564,-1060.0,48.0,16332.0,-596.0,-143.0,-313.0,16366.43296506603
3.6972079277038574,-1036.0,172.0,16420.0,-614.0,-59.0,-283.0,16453.549161199233
3.7317419052124023,-912.0,116.0,16360.0,-699.0,31.0,-276.0,16385.810935074285
3.7619316577911377,-916.0,28.0,16348.0,-723.0,89.0,-256.0,16373.666174684276
3.7884674072265625,-996.0,-40.0,16600.0,-671.0,28.0,-249.0,16629.901262484993
3.8182108402252197,-1000.0,72.0,16476.0,-606.0,-91.0,-216.0,16506.476304772015
3.8455629348754883,-1152.0,104.0,16452.0,-771.0,5.0,-263.0,16492.6111941075
3.872952938079834,-1020.0,-116.0,16360.0,-715.0,151.0,-271.0,16392.176670595032
3.8997621536254883,-1016.0,-52.0,16368.0,-836.0,299.0,-282.0,16399.5848727948
3.9270427227020264,-1168.0,-40.0,16596.0,-682.0,55.0,-268.0,16637.098304692438
3.9543755054473877,-1004.0,-36.0,16328.0,-628.0,-84.0,-246.0,16358.878201148145
3.9822018146514893,-1144.0,-64.0,16692.0,-397.0,-403.0,-182.0,16731.278970837826
4.0116682052612305,-984.0,84.0,16248.0,-459.0,-345.0,-200.0,16277.98562476328
4.038848400115967,-1092.0,60.0,16460.0,-638.0,-11.0,-238.0,16496.29243193755
4.066225051879883,-1136.0,92.0,16292.0,-676.0,20.0,-244.0,16331.816310502638
4.0944976806640625,-1084.0,-36.0,16332.0,-704.0,80.0,-257.0,16367.974095776179
4.121081829071045,-1132.0,76.0,16524.0,-539.0,-251.0,-244.0,16562.903610176567
4.148129940032959,-900.0,36.0,16328.0,-583.0,-160.0,-224.0,16352.824832425742
4.175239562988281,-976.0,-44.0,16392.0,-644.0,-33.0,-252.0,16421.089367030436
4.202936172485352,-1032.0,-4.0,16484.0,-544.0,-197.0,-234.0,16516.273671745694
4.232372522354126,-988.0,-96.0,16388.0,-577.0,-120.0,-217.0,16418.035936128294
4.263684272766113,-972.0,40.0,16276.0,-564.0,-170.0,-227.0,16305.047071382529
4.288137435913086,-992.0,16.0,16284.0,-583.0,-137.0,-215.0,16314.195536403258
4.314356327056885,-1052.0,4.0,16440.0,-607.0,-93.0,-215.0,16473.62498055604
4.339120149612427,-1068.0,-16.0,16416.0,-557.0,-163.0,-212.0,16450.71232500283
4.363982915878296,-1020.0,-104.0,16344.0,-586.0,-113.0,-214.0,16376.12750316753
4.388747215270996,-996.0,96.0,16440.0,-589.0,-144.0,-236.0,16470.422945389106
4.4134745597839355,-972.0,128.0,16392.0,-646.0,-58.0,-242.0,16421.292031993096
4.4380598068237305,-864.0,32.0,16432.0,-692.0,93.0,-257.0,16454.73014060091
4.462565183639526,-1040.0,92.0,16604.0,-765.0,157.0,-264.0,16636.79296018316
4.488068342208862,-920.0,76.0,16332.0,-728.0,97.0,-274.0,16358.068345620763
4.513495206832886,-1100.0,4.0,16384.0,-724.0,100.0,-244.0,16420.885238013205
4.537334203720093,-1184.0,-48.0,16304.0,-654.0,-9.0,-246.0,16347.005107970084
4.560985803604126,-1048.0,-112.0,16316.0,-731.0,149.0,-230.0,16350.00623853092
4.585153341293335,-1136.0,-96.0,16524.0,-800.0,243.0,-265.0,16563.28131742017
4.609262228012085,-1092.0,24.0,16588.0,-668.0,12.0,-249.0,16623.922040240683
4.633807897567749,-1088.0,-20.0,16444.0,-546.0,-225.0,-229.0,16479.966019382442
4.657942056655884,-1004.0,48.0,16432.0,-396.0,-450.0,-187.0,16462.713749561462
4.683950901031494,-984.0,16.0,16200.0,-378.0,-489.0,-180.0,16229.864817674854
4.7079973220825195,-1068.0,16.0,16308.0,-486.0,-309.0,-196.0,16342.941718062877
4.732996702194214,-948.0,-60.0,16296.0,-502.0,-248.0,-221.0,16323.66135399776
4.756228923797607,-1008.0,-156.0,16396.0,-524.0,-231.0,-271.0,16427.696612733023
4.782265901565552,-1084.0,152.0,16440.0,-665.0,-69.0,-265.0,16476.400092253163
4.814715623855591,-1020.0,140.0,16288.0,-708.0,114.0,-273.0,16320.50685487433
4.846933364868164,-1048.0,72.0,16308.0,-774.0,176.0,-261.0,16341.79769792785
4.878066062927246,-1060.0,88.0,16648.0,-670.0,48.0,-262.0,16681.943771635248
4.9174463748931885,-1040.0,-96.0,16320.0,-632.0,-64.0,-248.0,16353.385459897898
4.949259519577026,-948.0,32.0,16408.0,-636.0,-66.0,-218.0,16435.394488724633
4.975667953491211,-892.0,-4.0,16244.0,-739.0,106.0,-260.0,16268.473069099018
5.003143548965454,-1004.0,40.0,16280.0,-745.0,184.0,-271.0,16310.978388803045
5.032074451446533,-1092.0,12.0,16412.0,-649.0,82.0,-260.0,16448.29328532295
5.059528350830078,-1120.0,-72.0,16416.0,-552.0,-188.0,-211.0,16454.319797548607
5.085627317428589,-1004.0,-144.0,16412.0,-469.0,-314.0,-207.0,16443.311588606473
5.112027168273926,-1132.0,-40.0,16360.0,-526.0,-268.0,-214.0,16399.165344614343
5.137025833129883,-968.0,-100.0,16344.0,-490.0,-247.0,-204.0,16372.945978045613
5.1647021770477295,-944.0,12.0,16456.0,-513.0,-199.0,-207.0,16483.058454061247
5.191556215286255,-1000.0,36.0,16376.0,-545.0,-206.0,-219.0,16406.54357261151
5.217233180999756,-980.0,164.0,16368.0,-604.0,-86.0,-236.0,16398.13160088673
5.243352174758911,-1004.0,12.0,16396.0,-656.0,-29.0,-246.0,16426.71531378078
5.270303726196289,-984.0,44.0,16536.0,-638.0,-24.0,-237.0,16565.309776759383
5.297613143920898,-1052.0,16.0,16272.0,-595.0,-78.0,-221.0,16305.97878080307
5.325283050537109,-1020.0,-28.0,16292.0,-635.0,-41.0,-240.0,16323.922567814392
5.352452754974365,-976.0,44.0,16368.0,-669.0,61.0,-239.0,16397.131944337096
5.3792619705200195,-960.0,-52.0,16360.0,-808.0,290.0,-284.0,16388.224553013668
5.40502405166626,-1100.0,32.0,16336.0,-816.0,300.0,-248.0,16373.024155604242
5.437076807022095,-1152.0,0.0,16644.0,-636.0,-4.0,-238.0,16683.819706530037
5.46554970741272,-1172.0,-16.0,16448.0,-436.0,-391.0,-189.0,16489.71024608983
5.491236209869385,-1024.0,-8.0,16352.0,-346.0,-545.0,-165.0,16384.033203091356
5.516827583312988,-884.0,136.0,16324.0,-480.0,-285.0,-192.0,16348.483966411075
5.544497489929199,-1080.0,56.0,16292.0,-657.0,79.0,-298.0,16327.853502527514
5.570296764373779,-972.0,-164.0,16360.0,-483.0,-343.0,-292.0,16389.669917359533
5.5953590869903564,-916.0,72.0,16228.0,-587.0,-165.0,-321.0,16253.991017593187
5.621202707290649,-1088.0,136.0,16440.0,-768.0,91.0,-286.0,16476.523905241662
5.646095275878906,-968.0,48.0,16468.0,-777.0,164.0,-276.0,16496.49514290839
5.670623540878296,-1052.0,32.0,16484.0,-746.0,162.0,-263.0,16517.56592237488
5.694985628128052,-1116.0,-56.0,16436.0,-605.0,-67.0,-222.0,16473.939662387987
5.719364643096924,-1048.0,164.0,16236.0,-667.0,-40.0,-227.0,16270.614493620085
5.74449610710144,-1024.0,36.0,16352.0,-818.0,313.0,-290.0,16384.070800628273
5.769946098327637,-980.0,84.0,16500.0,-877.0,357.0,-317.0,16529.290849882218
5.797419548034668,-1084.0,24.0,16224.0,-590.0,-96.0,-223.0,16260.190896788388
5.826683521270752,-1100.0,-152.0,16592.0,-466.0,-450.0,-188.0,16629.11807643448
5.85215425491333,-976.0,64.0,16372.0,-400.0,-388.0,-200.0,16401.190688483566
5.876174211502075,-1072.0,-112.0,16424.0,-617.0,-72.0,-252.0,16459.328783398185
5.900789976119995,-1252.0,-68.0,16484.0,-652.0,-54.0,-215.0,16531.617706685574
5.929968357086182,-1032.0,-16.0,16436.0,-545.0,-221.0,-205.0,16468.375026091675
5.955185890197754,-1036.0,-36.0,16240.0,-560.0,-186.0,-200.0,16273.051096828769
5.980963230133057,-980.0,128.0,16524.0,-759.0,167.0,-259.0,16553.530137103688
6.007034540176392,-1132.0,-48.0,16312.0,-776.0,186.0,-280.0,16351.30184419577
6.039705753326416,-1156.0,32.0,16568.0,-677.0,18.0,-260.0,16608.31069073553
6.065725564956665,-1036.0,-76.0,16448.0,-585.0,-125.0,-205.0,16480.769884929527
6.089933633804321,-968.0,-56.0,16340.0,-595.0,-159.0,-213.0,16368.743384878388
6.1139984130859375,-964.0,32.0,16388.0,-711.0,12.0,-251.0,16416.359645183216
6.138437271118164,-1156.0,-160.0,16440.0,-706.0,98.0,-249.0,16481.36936058409
6.163092374801636,-1132.0,16.0,16468.0,-707.0,90.0,-244.0,16506.868388643557
6.1869893074035645,-1180.0,-52.0,16448.0,-554.0,-189.0,-235.0,16490.354999210904
6.212114334106445,-1004.0,4.0,16336.0,-565.0,-165.0,-227.0,16366.824004674823
6.236760139465332,-1088.0,32.0,16428.0,-616.0,-83.0,-240.0,16464.01992224256
6.2614593505859375,-1060.0,-28.0,16504.0,-574.0,-159.0,-218.0,16538.028903106922
6.286513328552246,-984.0,24.0,16376.0,-538.0,-182.0,-228.0,16405.554181435018
6.311352729797363,-1044.0,52.0,16388.0,-594.0,-100.0,-219.0,16421.302749782066
6.3354809284210205,-1040.0,12.0,16384.0,-638.0,-43.0,-235.0,16416.979015641093
6.359629392623901,-984.0,0.0,16472.0,-605.0,-81.0,-238.0,16501.364792040687
6.383445501327515,-1044.0,-104.0,16376.0,-547.0,-175.0,-214.0,16409.57427845098
6.407095670700073,-1044.0,-28.0,16432.0,-575.0,-138.0,-230.0,16465.155450222752
6.431107044219971,-1056.0,-40.0,16292.0,-616.0,-78.0,-233.0,16326.236553474288
6.455883979797363,-1092.0,-16.0,16472.0,-701.0,43.0,-252.0,16508.164767774764
6.479692459106445,-1076.0,12.0,16444.0,-718.0,100.0,-266.0,16479.170367466926
6.503590822219849,-1052.0,20.0,16396.0,-636.0,-4.0,-238.0,16429.726717142923
6.527581691741943,-1060.0,24.0,16432.0,-634.0,-80.0,-234.0,16466.17138256492
6.551661491394043,-1044.0,60.0,16352.0,-646.0,-31.0,-235.0,16385.40326021914
6.576856851577759,-972.0,44.0,16428.0,-569.0,-86.0,-222.0,16456.788994211478
6.601179838180542,-1072.0,104.0,16236.0,-576.0,-128.0,-237.0,16271.683871068784
6.624201774597168,-1072.0,-72.0,16536.0,-586.0,-143.0,-251.0,16570.86793140299
6.646447658538818,-1172.0,12.0,16576.0,-597.0,-106.0,-228.0,16617.385594611445
6.669303894042969,-912.0,-12.0,16360.0,-614.0,-66.0,-238.0,16385.404724937373
6.6920154094696045,-1164.0,-40.0,16384.0,-606.0,-64.0,-231.0,16425.344806122033
6.714857339859009,-1028.0,4.0,16448.0,-619.0,-56.0,-235.0,16480.094174488204
6.737362623214722,-1076.0,16.0,16416.0,-574.0,-126.0,-218.0,16451.23363155481
6.760322332382202,-960.0,0.0,16324.0,-643.0,-50.0,-237.0,16352.204010469048
6.783460378646851,-932.0,-48.0,16424.0,-675.0,1.0,-232.0,16450.49251542336
6.807243585586548,-1036.0,-12.0,16360.0,-658.0,-49.0,-231.0,16392.77401784091
6.835405588150024,-1092.0,-36.0,16432.0,-612.0,-74.0,-232.0,16468.28418506312
6.860262632369995,-1004.0,8.0,16496.0,-593.0,-107.0,-236.0,16526.527039883484
6.883150815963745,-1048.0,4.0,16448.0,-651.0,-20.0,-234.0,16481.353827886833
6.906758546829224,-1084.0,-88.0,16352.0,-711.0,82.0,-246.0,16388.12692164666
6.931166410446167,-1124.0,-148.0,16548.0,-567.0,-142.0,-198.0,16586.789442203695
6.9545066356658936,-972.0,-36.0,16296.0,-599.0,-147.0,-231.0,16325.002174578722
6.978506088256836,-1016.0,56.0,16572.0,-607.0,-80.0,-251.0,16603.20981015418
7.002954721450806,-1112.0,-64.0,16464.0,-594.0,-113.0,-250.0,16501.634343300666
7.029298543930054,-1088.0,132.0,16396.0,-578.0,-149.0,-220.0,16432.589083890583
7.055285215377808,-992.0,-76.0,16496.0,-470.0,-297.0,-210.0,16525.975190590114
7.080357551574707,-932.0,72.0,16308.0,-557.0,-136.0,-222.0,16334.76880766912
7.106048822402954,-1080.0,144.0,16356.0,-624.0,-82.0,-226.0,16392.250364120235
7.131625413894653,-1052.0,28.0,16424.0,-700.0,20.0,-255.0,16457.681003106118
7.1571364402771,-1160.0,-60.0,16516.0,-594.0,-63.0,-222.0,16556.794858909136
7.182714462280273,-1080.0,-4.0,16104.0,-672.0,31.0,-257.0,16140.174472415098
7.208240032196045,-1012.0,12.0,16304.0,-724.0,67.0,-260.0,16335.381966761597
7.23166036605835,-992.0,-28.0,16408.0,-634.0,-59.0,-239.0,16437.983817974757
7.2547829151153564,-1060.0,-32.0,16572.0,-609.0,-77.0,-235.0,16605.896783974058
7.278027296066284,-1072.0,168.0,16400.0,-545.0,-137.0,-216.0,16435.85738560663
7.301203489303589,-948.0,36.0,16296.0,-615.0,-52.0,-230.0,16323.590781442666
7.324531078338623,-1036.0,-44.0,16292.0,-607.0,-66.0,-224.0,16324.96542109661
7.349307060241699,-980.0,-56.0,16408.0,-548.0,-141.0,-206.0,16437.335550508178
7.377642631530762,-1012.0,-24.0,16328.0,-571.0,-49.0,-224.0,16359.34913130715
7.400631666183472,-1056.0,-124.0,16464.0,-580.0,-89.0,-211.0,16498.297124248915
7.42384147644043,-1148.0,-68.0,16400.0,-579.0,-153.0,-210.0,16440.271530604354
7.446842670440674,-1096.0,-112.0,16376.0,-637.0,-125.0,-231.0,16413.01727288435
7.470165729522705,-1080.0,180.0,16208.0,-700.0,-26.0,-263.0,16244.93964285494
7.493109703063965,-996.0,44.0,16428.0,-676.0,32.0,-246.0,16458.223962505795
7.515522003173828,-884.0,-44.0,16328.0,-655.0,76.0,-222.0,16351.971624241525
7.538295269012451,-992.0,84.0,16332.0,-648.0,-60.0,-222.0,16362.314750670212
7.56203556060791,-968.0,104.0,16404.0,-739.0,151.0,-259.0,16432.86511841438
7.588814973831177,-1100.0,-48.0,16436.0,-768.0,152.0,-268.0,16472.838249676344
7.614650726318359,-1068.0,-56.0,16484.0,-699.0,27.0,-255.0,16518.65660397358
7.640905857086182,-1128.0,-40.0,16412.0,-653.0,31.0,-251.0,16450.766790639274
7.66533637046814,-1152.0,16.0,16396.0,-621.0,-62.0,-238.0,16436.42832247931
7.689636707305908,-1104.0,-12.0,16400.0,-641.0,-49.0,-219.0,16437.121402484074
7.714232921600342,-1068.0,-24.0,16488.0,-622.0,-97.0,-239.0,16522.570744287947
7.739102125167847,-1096.0,8.0,16456.0,-448.0,-406.0,-191.0,16492.459367844443
7.763556241989136,-892.0,-28.0,16432.0,-451.0,-368.0,-213.0,16456.21681918417
7.790245532989502,-1032.0,-4.0,16300.0,-626.0,-40.0,-225.0,16332.637264079553
7.816737651824951,-1036.0,-52.0,16532.0,-588.0,-84.0,-235.0,16564.510979802573
7.846517324447632,-984.0,36.0,16356.0,-557.0,-104.0,-223.0,16385.612225364057
7.871562480926514,-1080.0,96.0,16316.0,-616.0,-52.0,-231.0,16351.986790601319
7.897082090377808,-1200.0,48.0,16440.0,-651.0,-62.0,-230.0,16483.807327192342
7.923980951309204,-1256.0,-40.0,16436.0,-470.0,-327.0,-221.0,16483.968939548507
7.949458837509155,-928.0,36.0,16300.0,-511.0,-292.0,-202.0,16326.435005842519
7.973562717437744,-960.0,52.0,16376.0,-585.0,-138.0,-255.0,16404.197023932626
7.997817516326904,-964.0,-16.0,16256.0,-606.0,-108.0,-250.0,16284.565944476382
8.02214765548706,-1020.0,-32.0,16436.0,-634.0,-56.0,-245.0,16467.65071283697
8.045234680175781,-1144.0,-128.0,16428.0,-642.0,-71.0,-234.0,16468.281756151733
8.069048881530762,-1000.0,92.0,16248.0,-659.0,-10.0,-249.0,16279.003900730535
8.092848062515259,-1036.0,124.0,16412.0,-739.0,114.0,-259.0,16445.133505082893
8.115829706192017,-996.0,-32.0,16540.0,-710.0,73.0,-256.0,16569.99215449422
8.139630556106567,-1008.0,-52.0,16496.0,-783.0,175.0,-271.0,16526.850395644055
8.163853406906128,-1116.0,-12.0,16608.0,-684.0,50.0,-274.0,16645.457758800145
8.188530683517456,-996.0,148.0,16284.0,-508.0,-73.0,-224.0,16315.10269658147
8.21336555480957,-1100.0,12.0,16328.0,-552.0,-212.0,-224.0,16365.015368156548
8.240026473999023,-1072.0,-52.0,16340.0,-517.0,-206.0,-250.0,16375.209555911033
8.264875650405884,-996.0,28.0,16300.0,-487.0,-254.0,-186.0,16330.425591514753
8.297311305999756,-964.0,76.0,16316.0,-532.0,-165.0,-228.0,16344.629943807233
8.32715106010437,-1056.0,36.0,16172.0,-593.0,-147.0,-211.0,16206.480679037013
8.354028463363647,-1072.0,16.0,16496.0,-686.0,106.0,-262.0,16530.80324727144
8.3810133934021,-1168.0,100.0,16396.0,-629.0,-37.0,-240.0,16437.853874517805
8.404962539672852,-1148.0,-44.0,16452.0,-616.0,-75.0,-235.0,16492.06306075744
8.432028770446777,-1012.0,24.0,16544.0,-609.0,-79.0,-238.0,16574.940603211824
8.45632791519165,-972.0,-20.0,16360.0,-656.0,-1.0,-272.0,16388.86158340475
8.480278015136719,-1016.0,8.0,16504.0,-681.0,34.0,-248.0,16535.24526579512
8.505055665969849,-996.0,-16.0,16276.0,-624.0,-45.0,-228.0,16306.454182316891
8.529906272888184,-1044.0,44.0,16540.0,-644.0,-5.0,-223.0,16572.974144673008
8.553702116012573,-1108.0,52.0,16408.0,-601.0,-83.0,-213.0,16445.45019146633
8.577348709106445,-1148.0,-32.0,16340.0,-538.0,-193.0,-232.0,16380.30915459168
8.602029800415039,-1020.0,-72.0,16384.0,-665.0,-7.0,-243.0,16415.87767985617
8.627444505691528,-988.0,60.0,16172.0,-650.0,45.0,-229.0,16202.263051808533
8.652530431747437,-988.0,20.0,16548.0,-608.0,-66.0,-235.0,16577.480146270722
8.676419258117676,-992.0,92.0,16456.0,-586.0,-126.0,-219.0,16486.129442655725
8.70016860961914,-1120.0,12.0,16316.0,-529.0,-162.0,-202.0,16354.4000195666
8.723179578781128,-1148.0,104.0,16484.0,-569.0,-87.0,-240.0,16524.254173789508
8.745500326156616,-1052.0,56.0,16348.0,-591.0,-147.0,-234.0,16381.909046261977
8.76889181137085,-996.0,-8.0,16264.0,-592.0,-59.0,-232.0,16294.470718621087
8.798691749572754,-900.0,32.0,16508.0,-523.0,-214.0,-220.0,16532.546325354724
8.823233127593994,-1048.0,-40.0,16368.0,-661.0,-47.0,-220.0,16401.564803396046
8.84901738166809,-1068.0,52.0,16284.0,-597.0,-70.0,-218.0,16319.068110648966
8.873753786087036,-1164.0,12.0,16492.0,-629.0,-91.0,-251.0,16533.030696154896
8.898409128189087,-1124.0,56.0,16448.0,-645.0,-2.0,-237.0,16486.455531738775
8.924296617507935,-1112.0,28.0,16532.0,-648.0,-12.0,-255.0,16569.379952188916
8.948987483978271,-888.0,140.0,16400.0,-655.0,-24.0,-224.0,16424.62005648837
8.974091291427612,-1092.0,96.0,16352.0,-617.0,-55.0,-241.0,16388.70293830479
8.999528884887695,-1036.0,-44.0,16412.0,-527.0,-224.0,-203.0,16444.72486847986
9.024773120880127,-1116.0,-36.0,16252.0,-641.0,-70.0,-239.0,16290.31172200213
9.04956603050232,-1124.0,0.0,16400.0,-587.0,-146.0,-235.0,16438.472435113916
9.07427716255188,-1028.0,-24.0,16412.0,-650.0,-56.0,-246.0,16444.181463362656
9.099493503570557,-1044.0,20.0,16240.0,-659.0,47.0,-265.0,16273.534834202434
9.12361764907837,-1036.0,-52.0,16472.0,-678.0,67.0,-244.0,16504.629168812004
9.147406816482544,-988.0,-40.0,16344.0,-637.0,4.0,-231.0,16373.884084113946
9.170967102050781,-1036.0,56.0,16500.0,-683.0,40.0,-250.0,16532.586972400903
9.194814205169678,-1108.0,64.0,16452.0,-606.0,-76.0,-248.0,16489.392469099643
9.218186140060425,-1040.0,144.0,16384.0,-589.0,-92.0,-245.0,16417.606159242583
9.241338968276978,-928.0,52.0,16332.0,-548.0,-164.0,-214.0,16358.426330182252
9.265644073486328,-1044.0,88.0,16340.0,-620.0,-22.0,-238.0,16373.554287325645
9.28947401046753,-972.0,40.0,16396.0,-747.0,132.0,-245.0,16424.83485457312
9.313201904296875,-1120.0,-72.0,16660.0,-687.0,61.0,-238.0,16697.759849752303
9.33547043800354,-1208.0,68.0,16368.0,-563.0,-181.0,-226.0,16412.657067032138
9.357818603515625,-1112.0,-100.0,16376.0,-522.0,-275.0,-214.0,16414.01596197591
9.381081819534302,-1012.0,-212.0,16440.0,-682.0,80.0,-253.0,16472.48275154659
9.404833555221558,-1036.0,32.0,16300.0,-643.0,7.0,-239.0,16332.921355348528
9.42921781539917,-856.0,-60.0,16376.0,-623.0,-24.0,-221.0,16398.466757596576
9.452256441116333,-1100.0,36.0,16392.0,-703.0,93.0,-245.0,16428.906232613295
9.474983930587769,-1076.0,-4.0,16364.0,-570.0,-222.0,-237.0,16399.33803542082
9.49805760383606,-1148.0,-16.0,16496.0,-515.0,-258.0,-222.0,16535.90566010825
9.521194219589233,-1164.0,-20.0,16436.0,-490.0,-264.0,-224.0,16477.1779137084
9.545722007751465,-948.0,-88.0,16188.0,-510.0,-268.0,-225.0,16215.973359622913
9.568646907806396,-968.0,-44.0,16452.0,-647.0,-35.0,-266.0,16480.51164254314
9.592453241348267,-928.0,12.0,16296.0,-722.0,85.0,-251.0,16322.406195166202
9.616073608398438,-1056.0,36.0,16468.0,-606.0,-71.0,-231.0,16501.862197946026
9.640211582183838,-1008.0,12.0,16496.0,-639.0,-18.0,-224.0,16526.77294573868
9.662367343902588,-960.0,76.0,16388.0,-684.0,21.0,-248.0,16416.269978286786
9.687851905822754,-1116.0,140.0,16484.0,-693.0,84.0,-254.0,16522.32768105027
9.709851026535034,-944.0,-32.0,16400.0,-688.0,262.0,-268.0,16427.177481235176
9.73210096359253,-932.0,-40.0,16408.0,-701.0,174.0,-247.0,16434.496889165788
9.755447387695312,-1044.0,28.0,16296.0,-639.0,-111.0,-232.0,16329.431588392781
9.778438329696655,-1136.0,-24.0,16376.0,-434.0,-358.0,-230.0,16415.372307687692
9.800722360610962,-1136.0,-28.0,16468.0,-428.0,-383.0,-225.0,16507.159174128054
9.824665307998657,-1120.0,-28.0,16460.0,-466.0,-313.0,-233.0,16498.08425242155
9.848522186279297,-940.0,-64.0,16064.0,-577.0,-140.0,-234.0,16091.606259165055
9.87950325012207,-1036.0,-16.0,16432.0,-675.0,44.0,-248.0,16464.634098576258
9.90272855758667,-944.0,-64.0,16380.0,-699.0,85.0,-253.0,16407.304227081302
9.9261314868927,-1164.0,60.0,16424.0,-624.0,-71.0,-224.0,16465.30509890418
9.949279308319092,-1100.0,104.0,16332.0,-644.0,-20.0,-229.0,16369.332301593733
9.972965478897095,-1076.0,-32.0,16496.0,-672.0,9.0,-243.0,16531.08635268717
9.9963538646698,-976.0,48.0,16456.0,-674.0,60.0,-257.0,16484.987594778468
10.02048110961914,-1060.0,-52.0,16392.0,-694.0,48.0,-272.0,16426.319368623026
10.045590877532959,-1016.0,-44.0,16280.0,-577.0,-217.0,-255.0,16311.73172903478
10.070408821105957,-1216.0,-116.0,16756.0,-461.0,-218.0,-236.0,16800.46570783084
10.095706939697266,-1092.0,-36.0,16320.0,-490.0,-244.0,-215.0,16356.532639896514
10.120902061462402,-1028.0,-84.0,16200.0,-616.0,-40.0,-243.0,16232.801360208903
10.145824670791626,-968.0,48.0,16408.0,-636.0,-19.0,-255.0,16436.59916162708
10.170623302459717,-1008.0,32.0,16564.0,-643.0,-24.0,-225.0,16594.673362256937
10.196042776107788,-952.0,-32.0,16344.0,-674.0,30.0,-218.0,16371.733689502771
10.222008228302002,-1140.0,52.0,16328.0,-624.0,-52.0,-207.0,16367.830888666953
10.247175216674805,-1116.0,48.0,16408.0,-611.0,-112.0,-228.0,16445.978961436136
10.272531032562256,-1076.0,-12.0,16448.0,-562.0,-172.0,-225.0,16483.161832609665
10.29754114151001,-1060.0,-68.0,16208.0,-571.0,-150.0,-236.0,16242.767251918622
10.321891784667969,-1136.0,-52.0,16316.0,-565.0,-197.0,-219.0,16355.581799495852
10.346565961837769,-1104.0,-128.0,16396.0,-559.0,-175.0,-221.0,16433.624554552778
10.371355056762695,-1040.0,-64.0,16252.0,-554.0,-157.0,-217.0,16285.367665484253
10.397960186004639,-912.0,28.0,16356.0,-612.0,-109.0,-233.0,16381.4304625695
10.429336309432983,-1064.0,-68.0,16364.0,-712.0,108.0,-255.0,16398.695557878986
10.458091735839844,-952.0,-56.0,16392.0,-688.0,67.0,-241.0,16419.71692813247
10.484206676483154,-996.0,96.0,16444.0,-577.0,-130.0,-235.0,16474.415558677643
10.508996725082397,-1004.0,84.0,16400.0,-584.0,-58.0,-213.0,16430.918172761983
10.533577680587769,-996.0,36.0,16244.0,-634.0,-20.0,-208.0,16274.546015173511
10.558184385299683,-1184.0,0.0,16316.0,-653.0,2.0,-261.0,16358.903141714605
10.583701133728027,-1116.0,-148.0,16324.0,-694.0,45.0,-248.0,16362.77287014643
10.608406782150269,-1140.0,-128.0,16504.0,-612.0,-92.0,-210.0,16543.82059864045
10.633578538894653,-1140.0,-8.0,16440.0,-608.0,-60.0,-242.0,16479.4800888863
10.657820701599121,-1108.0,36.0,16484.0,-636.0,-42.0,-251.0,16521.235304903807
10.683991193771362,-1040.0,36.0,16464.0,-597.0,-46.0,-241.0,16496.85400311223
10.710480690002441,-1128.0,48.0,16444.0,-532.0,-228.0,-211.0,16482.71288350313
10.735374212265015,-984.0,20.0,16264.0,-549.0,-225.0,-209.0,16293.75193133859
10.759818077087402,-948.0,72.0,16264.0,-517.0,-230.0,-208.0,16291.764299792701
10.785515308380127,-972.0,-56.0,16444.0,-570.0,-149.0,-210.0,16472.797455198677
10.810643672943115,-1184.0,8.0,16376.0,-539.0,-202.0,-221.0,16418.748307955757
10.837035417556763,-980.0,-116.0,16352.0,-575.0,-142.0,-223.0,16381.750822180149
10.863117218017578,-1068.0,28.0,16404.0,-646.0,13.0,-272.0,16438.75372405098
10.889497995376587,-1056.0,140.0,16436.0,-684.0,61.0,-252.0,16470.483660172216
10.91529893875122,-1084.0,-44.0,16320.0,-708.0,57.0,-253.0,16356.020053790591
10.940322875976562,-968.0,0.0,16416.0,-716.0,68.0,-244.0,16444.515195042997
10.965365886688232,-924.0,52.0,16420.0,-654.0,-4.0,-258.0,16446.059710459525
10.991453170776367,-1068.0,-4.0,16328.0,-626.0,-54.0,-243.0,16362.891675984412
11.016755819320679,-900.0,124.0,16400.0,-616.0,-113.0,-224.0,16425.14462645611
11.042224884033203,-1004.0,-28.0,16408.0,-551.0,-167.0,-215.0,16438.712358332694
11.067613363265991,-1104.0,164.0,16440.0,-524.0,-202.0,-216.0,16477.843062731237
11.093310832977295,-1124.0,8.0,16360.0,-489.0,-263.0,-193.0,16398.568230184
11.119452953338623,-1008.0,-100.0,16364.0,-532.0,-261.0,-216.0,16395.321283829726
11.14444375038147,-1056.0,16.0,16396.0,-612.0,-91.0,-247.0,16429.97894094816
11.170432567596436,-988.0,48.0,16352.0,-684.0,9.0,-243.0,16381.890977539802
11.194923162460327,-1056.0,56.0,16324.0,-711.0,64.0,-263.0,16358.216528705078
11.220266580581665,-1040.0,36.0,16564.0,-724.0,48.0,-264.0,16596.656048734636
11.244881868362427,-988.0,144.0,16332.0,-651.0,11.0,-234.0,16362.490763939333
11.271172285079956,-920.0,132.0,16368.0,-594.0,-76.0,-242.0,16394.366349450655
11.295990705490112,-1256.0,-32.0,16420.0,-622.0,-142.0,-226.0,16467.998056837387
11.320903539657593,-1060.0,-24.0,16268.0,-606.0,-88.0,-238.0,16302.515143375884
11.345030784606934,-1116.0,-20.0,16260.0,-718.0,87.0,-267.0,16298.265429179879
11.369511365890503,-1156.0,-132.0,16564.0,-547.0,-175.0,-216.0,16604.814241658954
11.394448041915894,-1032.0,-28.0,16496.0,-543.0,-164.0,-207.0,16528.27347305217
11.42112135887146,-924.0,32.0,16344.0,-573.0,-89.0,-236.0,16370.129382506419
11.446344375610352,-1016.0,56.0,16332.0,-603.0,-137.0,-232.0,16363.667559566224
11.471788883209229,-1036.0,96.0,16560.0,-595.0,-98.0,-244.0,16592.65234976012
11.496978521347046,-956.0,120.0,16284.0,-639.0,-22.0,-241.0,16312.479639834037
11.52153730392456,-996.0,192.0,16456.0,-676.0,36.0,-237.0,16487.231908358663
11.546140193939209,-1044.0,12.0,16340.0,-702.0,51.0,-239.0,16373.322204122167
11.57107925415039,-976.0,112.0,16424.0,-577.0,-118.0,-239.0,16453.355159358834
11.596068382263184,-1024.0,-36.0,16400.0,-624.0,-94.0,-230.0,16431.97711780296
11.6208336353302,-988.0,-16.0,16384.0,-592.0,-76.0,-229.0,16413.770316414204
11.64548921585083,-948.0,44.0,16444.0,-698.0,47.0,-240.0,16471.362299457807
11.669970512390137,-1132.0,-40.0,16536.0,-692.0,86.0,-249.0,16574.74947020316
11.695444345474243,-1028.0,-16.0,16476.0,-681.0,41.0,-264.0,16508.04700744458
11.721595048904419,-1176.0,-4.0,16464.0,-573.0,-166.0,-221.0,16505.947049472805
11.745930433273315,-976.0,-12.0,16312.0,-512.0,-241.0,-215.0,16341.176946597207
11.770993709564209,-1020.0,36.0,16324.0,-535.0,-230.0,-197.0,16355.875763773704
11.79602837562561,-916.0,100.0,16304.0,-556.0,-196.0,-212.0,16330.017513768931
11.822136402130127,-936.0,84.0,16328.0,-616.0,-108.0,-248.0,16355.021736457582
11.850000619888306,-932.0,12.0,16504.0,-650.0,-8.0,-264.0,16530.298968863208
11.875873327255249,-984.0,48.0,16240.0,-722.0,97.0,-252.0,16269.854332476367
11.904161930084229,-1132.0,-24.0,16340.0,-642.0,-13.0,-247.0,16379.181908752342
11.930241346359253,-1128.0,-24.0,16356.0,-573.0,-140.0,-228.0,16394.867977510523
11.955217599868774,-1060.0,40.0,16176.0,-566.0,-135.0,-217.0,16210.74261099719
11.980197429656982,-1012.0,-88.0,16388.0,-705.0,71.0,-248.0,16419.452853246967
12.00570034980774,-980.0,44.0,16328.0,-760.0,174.0,-259.0,16357.44234286033
12.031981706619263,-1044.0,-52.0,16424.0,-699.0,92.0,-248.0,16457.22990056346
12.057132244110107,-992.0,-172.0,16636.0,-605.0,73.0,-202.0,16666.437651759898
12.08302617073059,-1044.0,56.0,16388.0,-518.0,-264.0,-214.0,16421.3159034226
12.108947277069092,-952.0,72.0,16488.0,-475.0,-292.0,-210.0,16515.617820717456
12.134833812713623,-1064.0,8.0,16476.0,-536.0,-228.0,-219.0,16510.32210467137
12.160130500793457,-1016.0,28.0,16336.0,-483.0,-302.0,-209.0,16367.587971353629
12.18508005142212,-1020.0,4.0,16444.0,-607.0,-64.0,-244.0,16475.60475369569
12.210344314575195,-1020.0,68.0,16092.0,-654.0,22.0,-249.0,16124.437602595634
12.235487937927246,-1116.0,172.0,16388.0,-625.0,-26.0,-240.0,16426.85557250687
12.26035761833191,-988.0,20.0,16440.0,-627.0,-47.0,-227.0,16469.673463672556
12.285356521606445,-972.0,52.0,16392.0,-605.0,-47.0,-259.0,16420.875494321244
12.31006407737732,-1076.0,20.0,16512.0,-666.0,-42.0,-252.0,16547.033571006014
12.33508849143982,-928.0,32.0,16444.0,-666.0,1.0,-233.0,16470.19562725349
12.359856605529785,-1048.0,20.0,16412.0,-707.0,57.0,-247.0,16445.438516500555
12.3843674659729,-1132.0,116.0,16384.0,-657.0,-4.0,-233.0,16423.46906107233
12.4098482131958,-1164.0,-20.0,16540.0,-613.0,-105.0,-248.0,16580.91963673909
12.434317111968994,-1132.0,52.0,16348.0,-510.0,-245.0,-224.0,16387.227709408326
12.45885181427002,-900.0,24.0,16416.0,-500.0,-269.0,-234.0,16440.670059337604
12.483565330505371,-992.0,-96.0,16484.0,-513.0,-267.0,-197.0,16514.101126007434
12.508947372436523,-1004.0,-32.0,16372.0,-539.0,-212.0,-209.0,16402.7870802495
12.533415079116821,-948.0,-44.0,16368.0,-617.0,-84.0,-269.0,16395.489135734864
12.55791711807251,-1060.0,172.0,16160.0,-672.0,-1.0,-220.0,16195.640895006285
12.582957029342651,-988.0,96.0,16472.0,-736.0,154.0,-268.0,16501.883044065
12.607447147369385,-1156.0,-28.0,16532.0,-671.0,41.0,-233.0,16572.39101638626
12.632948160171509,-1004.0,0.0,16340.0,-619.0,-111.0,-235.0,16370.815984550067
12.657626867294312,-1092.0,16.0,16364.0,-618.0,-70.0,-251.0,16400.402921879693
12.682605981826782,-964.0,-44.0,16572.0,-674.0,12.0,-239.0,16600.07277092483
12.707452058792114,-1028.0,-76.0,16328.0,-776.0,194.0,-290.0,16360.505615658705
12.732620477676392,-1140.0,-80.0,16264.0,-820.0,348.0,-276.0,16304.100588502268
12.757497787475586,-1180.0,-60.0,16404.0,-706.0,45.0,-287.0,16446.49555376464
12.782986402511597,-1148.0,72.0,16340.0,-624.0,-113.0,-247.0,16380.43613582984
12.808522701263428,-1208.0,-68.0,16440.0,-553.0,-234.0,-220.0,16484.462017305872
12.834805011749268,-1076.0,-48.0,16452.0,-450.0,-371.0,-207.0,16487.218807306464
12.861750602722168,-1060.0,24.0,16548.0,-427.0,-392.0,-191.0,16581.93233613019
12.887974262237549,-988.0,-32.0,16384.0,-479.0,-343.0,-192.0,16413.793711387993
12.913970232009888,-1008.0,0.0,16412.0,-539.0,-205.0,-232.0,16442.92577371801
12.941467046737671,-1100.0,-32.0,16496.0,-606.0,-65.0,-258.0,16532.66584674111
12.96755051612854,-972.0,-8.0,16252.0,-607.0,-71.0,-249.0,16281.042718450191
12.9931058883667,-1068.0,176.0,16336.0,-599.0,-95.0,-238.0,16371.820179808963
13.018989086151123,-924.0,24.0,16428.0,-635.0,-84.0,-240.0,16453.98237509692
13.044231414794922,-972.0,104.0,16248.0,-669.0,22.0,-239.0,16277.38013317868
13.06986403465271,-1000.0,116.0,16264.0,-733.0,121.0,-258.0,16295.126633444737
13.095205783843994,-1052.0,-24.0,16428.0,-742.0,153.0,-279.0,16461.666501299314
13.120960474014282,-1016.0,-40.0,16408.0,-646.0,31.0,-244.0,16439.474444154228
13.146891355514526,-1032.0,0.0,16452.0,-548.0,-183.0,-221.0,16484.33583739424
13.172019481658936,-996.0,16.0,16296.0,-519.0,-212.0,-227.0,16326.416875726283
13.197874784469604,-1112.0,56.0,16512.0,-557.0,-197.0,-209.0,16549.49618568493
13.223730325698853,-1060.0,-80.0,16284.0,-564.0,-138.0,-209.0,16318.659748888693
13.249864101409912,-1084.0,-16.0,16412.0,-546.0,-146.0,-209.0,16447.767508084493
13.274450778961182,-896.0,4.0,16360.0,-633.0,-75.0,-215.0,16384.51805821581
13.29981255531311,-944.0,120.0,16360.0,-699.0,19.0,-264.0,16387.651936747985
13.32536768913269,-944.0,0.0,16456.0,-711.0,64.0,-244.0,16483.054085939293
13.350895166397095,-1028.0,44.0,16488.0,-616.0,-68.0,-239.0,16520.074576102856
13.375363826751709,-1060.0,60.0,16488.0,-544.0,-200.0,-226.0,16522.147075970483
13.400226593017578,-996.0,36.0,16488.0,-540.0,-185.0,-229.0,16518.094805394478
13.424849271774292,-956.0,56.0,16236.0,-605.0,-99.0,-237.0,16264.217411237469
13.449869155883789,-988.0,-32.0,16424.0,-734.0,102.0,-276.0,16453.721281217815
13.474427700042725,-1024.0,12.0,16448.0,-709.0,112.0,-237.0,16479.849028434695
13.498912811279297,-1120.0,72.0,16312.0,-590.0,-129.0,-229.0,16350.563537688846
13.524025201797485,-1024.0,144.0,16520.0,-532.0,-199.0,-223.0,16552.33252445105
13.54879879951477,-976.0,72.0,16512.0,-569.0,-173.0,-214.0,16540.976512890647
13.5736985206604,-996.0,68.0,16436.0,-524.0,-211.0,-226.0,16466.290899896067
13.598939418792725,-844.0,24.0,16344.0,-551.0,-215.0,-190.0,16365.795061652214
13.624329805374146,-980.0,-44.0,16276.0,-593.0,-163.0,-249.0,16305.536237732264
13.64916443824768,-988.0,76.0,16368.0,-598.0,-109.0,-269.0,16397.967678953388
13.673827409744263,-1052.0,68.0,16336.0,-726.0,113.0,-275.0,16369.979352461016
13.698522329330444,-1000.0,24.0,16316.0,-659.0,38.0,-226.0,16346.633659564284
13.723237752914429,-1140.0,72.0,16376.0,-735.0,117.0,-266.0,16415.789959669928
13.748679399490356,-1048.0,-84.0,16120.0,-743.0,121.0,-267.0,16154.248976662455
13.773577213287354,-1012.0,-24.0,16360.0,-690.0,23.0,-229.0,16391.28792987299
13.798691034317017,-1088.0,-32.0,16164.0,-817.0,223.0,-247.0,16200.606902212028
13.824638843536377,-988.0,56.0,16288.0,-990.0,625.0,-288.0,16318.033705076112
13.849966764450073,-1216.0,108.0,16544.0,-850.0,377.0,-307.0,16588.979956585637
13.876138925552368,-948.0,572.0,16376.0,-828.0,501.0,-466.0,16413.38673156762
13.903759479522705,-880.0,1084.0,16444.0,-644.0,250.0,-846.0,16503.169150196576
13.931028604507446,-1060.0,704.0,16480.0,-621.0,387.0,-1382.0,16529.05369342117
13.95617961883545,-1968.0,-2444.0,16908.0,-857.0,895.0,-830.0,17196.70387021885
13.979142427444458,-896.0,72.0,16396.0,-405.0,-642.0,-234.0,16420.621669108634
14.001814365386963,-1436.0,-172.0,16600.0,-605.0,-164.0,-237.0,16662.883303918323
14.027223348617554,-1260.0,-36.0,16468.0,-556.0,-197.0,-237.0,16516.17146919951
14.049821615219116,-1116.0,-52.0,16216.0,-654.0,12.0,-251.0,16254.439885766596
14.073080778121948,-1212.0,-52.0,16560.0,-633.0,-12.0,-246.0,16604.374363401952
14.096953392028809,-1092.0,4.0,16484.0,-609.0,-91.0,-225.0,16520.13123434557
14.121190071105957,-1136.0,-184.0,16348.0,-635.0,-48.0,-248.0,16388.45496073379
14.145211219787598,-1060.0,-8.0,16336.0,-587.0,-117.0,-235.0,16370.35613540524
14.167837142944336,-1220.0,-164.0,16384.0,-642.0,37.0,-246.0,16430.178087896675
14.191465854644775,-1168.0,32.0,16240.0,-626.0,-63.0,-246.0,16281.979240866265
14.21497392654419,-1220.0,-112.0,16428.0,-607.0,-81.0,-255.0,16473.619153058018
14.238749265670776,-1196.0,-140.0,16376.0,-597.0,-48.0,-221.0,16420.2129097037
14.260788440704346,-1152.0,-76.0,16384.0,-609.0,-117.0,-247.0,16424.625901371393
14.282827377319336,-1236.0,-140.0,16472.0,-559.0,-249.0,-200.0,16518.900689815895
14.30553388595581,-1300.0,-100.0,16492.0,-604.0,-32.0,-235.0,16543.45985578591
14.328152656555176,-1124.0,0.0,16368.0,-612.0,-79.0,-219.0,16406.547473493625
14.351063966751099,-1148.0,4.0,16284.0,-607.0,-88.0,-233.0,16324.416559252584
14.373475551605225,-1176.0,24.0,16400.0,-599.0,-82.0,-242.0,16442.12735627601
14.397833824157715,-1064.0,-36.0,16320.0,-614.0,-79.0,-234.0,16354.687156897866
14.420301914215088,-1092.0,-56.0,16352.0,-649.0,-42.0,-220.0,16388.517443624973
14.442273139953613,-1204.0,-112.0,16312.0,-586.0,-78.0,-231.0,16356.757135813932
14.465171098709106,-1068.0,-176.0,16320.0,-636.0,-68.0,-236.0,16355.855220684733
14.487420797348022,-1068.0,28.0,16264.0,-620.0,-29.0,-216.0,16299.052242385138
14.50943660736084,-1092.0,-24.0,16332.0,-656.0,25.0,-222.0,16368.483863815854
14.531440496444702,-1164.0,-52.0,16416.0,-613.0,-77.0,-239.0,16457.297955618353
14.553792715072632,-1072.0,-64.0,16312.0,-619.0,-45.0,-231.0,16347.312439664203
14.576094150543213,-1200.0,-48.0,16416.0,-643.0,-53.0,-227.0,16459.871202412247
14.598042726516724,-1204.0,48.0,16492.0,-617.0,-51.0,-230.0,16535.96032893161
14.620198011398315,-1144.0,24.0,16392.0,-604.0,-63.0,-206.0,16431.88899670394
14.642436981201172,-1080.0,68.0,16464.0,-620.0,-73.0,-239.0,16499.524841643168
14.664547681808472,-1148.0,0.0,16292.0,-608.0,-74.0,-215.0,16332.396272439633
14.689904689788818,-1192.0,-124.0,16304.0,-626.0,-57.0,-236.0,16347.986298012363
14.713564157485962,-1148.0,12.0,16364.0,-614.0,-75.0,-231.0,16404.223358635423
14.736532926559448,-1216.0,-116.0,16292.0,-626.0,-77.0,-240.0,16337.72860589868
14.758905410766602,-1120.0,-156.0,16404.0,-606.0,-64.0,-236.0,16442.930152500194
14.78161096572876,-1184.0,-36.0,16364.0,-613.0,-61.0,-234.0,16406.817119721913
14.804134130477905,-1172.0,-104.0,16368.0,-613.0,-76.0,-247.0,16410.23534261468
14.82791519165039,-1304.0,132.0,16424.0,-610.0,-74.0,-233.0,16476.213642703227
14.851308107376099,-1264.0,32.0,16304.0,-624.0,-52.0,-233.0,16352.954962330203
14.874521732330322,-1096.0,-48.0,16424.0,-612.0,-40.0,-242.0,16460.598288033154
14.897029399871826,-1168.0,16.0,16364.0,-621.0,-65.0,-235.0,16405.638542891284
14.919581890106201,-1228.0,-92.0,16396.0,-597.0,-72.0,-251.0,16442.179417583302
14.94297742843628,-1176.0,-36.0,16400.0,-603.0,-131.0,-216.0,16442.149251238417
14.965739965438843,-1288.0,-192.0,16504.0,-607.0,-125.0,-202.0,16555.295950239004
14.988926410675049,-1116.0,32.0,16492.0,-601.0,-118.0,-228.0,16529.747245496525
15.011910200119019,-1256.0,-16.0,16252.0,-602.0,-102.0,-254.0,16300.469195701085
15.034428596496582,-1268.0,20.0,16260.0,-585.0,-45.0,-248.0,16309.378406303535
15.05796217918396,-1156.0,20.0,16460.0,-619.0,-77.0,-239.0,16500.55562700844
15.081263780593872,-1120.0,-60.0,16404.0,-607.0,-45.0,-236.0,16442.299595859455
15.104221105575562,-1168.0,24.0,16428.0,-588.0,-53.0,-224.0,16469.486452224308
15.12696123123169,-1156.0,-16.0,16328.0,-621.0,-49.0,-239.0,16368.878275556941
15.150283098220825,-1132.0,-160.0,16344.0,-637.0,-38.0,-216.0,16383.936035031387
15.173286199569702,-1228.0,52.0,16384.0,-645.0,-32.0,-249.0,16430.037857533986
15.197589874267578,-1132.0,-48.0,16380.0,-637.0,-9.0,-255.0,16419.13907609044
15.219623327255249,-1148.0,-36.0,16456.0,-660.0,4.0,-244.0,16496.033947588734
15.241833448410034,-1112.0,-64.0,16356.0,-614.0,-38.0,-210.0,16393.882273579984
15.264232158660889,-1140.0,-32.0,16328.0,-576.0,-112.0,-210.0,16367.779568408172
15.286813735961914,-1184.0,32.0,16464.0,-572.0,-125.0,-220.0,16506.54948800627
15.3088538646698,-1096.0,8.0,16412.0,-601.0,-60.0,-238.0,16448.55689718706
15.331292390823364,-1096.0,-84.0,16340.0,-617.0,-89.0,-244.0,16376.931092240695
15.353765487670898,-1084.0,36.0,16256.0,-625.0,-43.0,-244.0,16292.141909521903
15.375765562057495,-1192.0,-52.0,16464.0,-602.0,9.0,-230.0,16507.176136456532
15.398241519927979,-1252.0,-28.0,16376.0,-672.0,21.0,-248.0,16423.813929778917
15.420804262161255,-1388.0,-160.0,16416.0,-610.0,-69.0,-239.0,16475.351286087953
15.443073511123657,-1204.0,20.0,16548.0,-604.0,-115.0,-224.0,16591.75457870565
15.46488881111145,-1084.0,-32.0,16408.0,-628.0,-51.0,-235.0,16443.79956092873
15.487605571746826,-1120.0,-48.0,16384.0,-600.0,-51.0,-226.0,16422.3067807175
15.509675741195679,-1208.0,-96.0,16452.0,-633.0,-75.0,-203.0,16496.568855371108
15.531878232955933,-1112.0,-160.0,16424.0,-571.0,-131.0,-233.0,16462.378928939765
15.554201126098633,-1208.0,-96.0,16252.0,-599.0,-177.0,-208.0,16297.115818450822
15.576863288879395,-1116.0,0.0,16248.0,-587.0,-170.0,-232.0,16286.28134351117
15.599738836288452,-1240.0,-48.0,16384.0,-600.0,-131.0,-220.0,16430.926936725147
15.622435808181763,-1164.0,-100.0,16512.0,-624.0,-63.0,-253.0,16553.27882928334
15.644881010055542,-1220.0,-112.0,16364.0,-640.0,-33.0,-241.0,16409.797073699603
15.668304681777954,-1184.0,-36.0,16332.0,-663.0,25.0,-245.0,16374.900793592613
15.690217018127441,-1312.0,-64.0,16428.0,-612.0,-108.0,-213.0,16480.431547747772
15.712929725646973,-1280.0,-24.0,16304.0,-633.0,-29.0,-248.0,16354.185763895432
15.735859632492065,-1124.0,-104.0,16424.0,-616.0,-71.0,-239.0,16462.744850115367
15.75821852684021,-1168.0,-64.0,16376.0,-578.0,-200.0,-216.0,16417.72505556114
15.781594514846802,-1068.0,-36.0,16232.0,-560.0,-144.0,-219.0,16267.136933093052
15.803914070129395,-1068.0,12.0,16364.0,-608.0,-71.0,-248.0,16398.818981865737
15.827460765838623,-1132.0,-88.0,16324.0,-622.0,-53.0,-242.0,16363.439247297616
15.851351499557495,-1160.0,-40.0,16340.0,-611.0,-60.0,-250.0,16381.172119234936
15.874325037002563,-1056.0,-8.0,16300.0,-645.0,-16.0,-228.0,16334.172767544735
15.896949291229248,-1204.0,-132.0,16348.0,-631.0,-27.0,-241.0,16392.80769117969
15.919703006744385,-1088.0,-152.0,16392.0,-646.0,-29.0,-245.0,16428.77086090131
15.945984125137329,-1156.0,-88.0,16388.0,-620.0,-56.0,-254.0,16428.956874981443
15.968510150909424,-1040.0,-16.0,16368.0,-622.0,-79.0,-241.0,16401.014602761625
15.99159026145935,-1288.0,-12.0,16480.0,-656.0,-8.0,-230.0,16530.25976807382
16.015117168426514,-1120.0,-56.0,16440.0,-614.0,-139.0,-233.0,16478.20184364787
16.03766417503357,-1144.0,4.0,16344.0,-593.0,-165.0,-233.0,16383.988769527401
16.061323881149292,-1180.0,-120.0,16360.0,-570.0,-143.0,-229.0,16402.938761087906
16.08399510383606,-1312.0,-32.0,16468.0,-610.0,-136.0,-224.0,16520.2116209206
16.10618782043457,-1196.0,-76.0,16228.0,-616.0,-67.0,-244.0,16272.190264374369
16.12971544265747,-1216.0,-20.0,16424.0,-651.0,5.0,-233.0,16468.96572344481
16.15179753303528,-1196.0,-92.0,16432.0,-626.0,-7.0,-235.0,16475.724688158636
16.17513155937195,-1112.0,-104.0,16500.0,-628.0,-58.0,-225.0,16537.755591373334
16.197585105895996,-1120.0,-72.0,16316.0,-641.0,-38.0,-230.0,16354.554105814075
16.219897508621216,-1208.0,-164.0,16448.0,-617.0,-87.0,-234.0,16493.11565472091
16.242212533950806,-1092.0,-24.0,16424.0,-606.0,-144.0,-227.0,16460.27994901666
16.265568733215332,-1160.0,-56.0,16604.0,-600.0,-175.0,-228.0,16644.56523914037
16.288628339767456,-1216.0,8.0,16488.0,-635.0,-52.0,-220.0,16532.781496166943
16.311378002166748,-1196.0,-36.0,16520.0,-608.0,-61.0,-237.0,16563.2760044624
16.334709882736206,-1084.0,-64.0,16428.0,-610.0,-48.0,-235.0,16463.849367629675
16.357959270477295,-1124.0,-8.0,16504.0,-688.0,83.0,-261.0,16542.232497459343
16.380592107772827,-1348.0,-72.0,16536.0,-618.0,-91.0,-250.0,16591.009131454302
16.404170036315918,-1212.0,-88.0,16492.0,-612.0,-101.0,-238.0,16536.709225235834
16.427122354507446,-1128.0,48.0,16316.0,-624.0,-64.0,-225.0,16355.015866699732
16.449955940246582,-1236.0,-20.0,16348.0,-609.0,-82.0,-216.0,16394.669865538617
16.47262215614319,-1180.0,-12.0,16432.0,-603.0,-67.0,-234.0,16474.31843810238
16.496164083480835,-1156.0,-88.0,16312.0,-630.0,-77.0,-236.0,16353.147220030767
16.519594430923462,-1152.0,-88.0,16276.0,-606.0,-127.0,-212.0,16316.95510810764
16.54254937171936,-1200.0,52.0,16392.0,-599.0,-104.0,-232.0,16435.947432381257
16.565544366836548,-1164.0,-36.0,16244.0,-626.0,-11.0,-240.0,16285.690897226314
16.588352918624878,-1144.0,-40.0,16420.0,-638.0,-37.0,-228.0,16459.852247210485
16.61146068572998,-1188.0,-16.0,16496.0,-609.0,-79.0,-228.0,16538.73078564374
16.63504385948181,-1200.0,-36.0,16464.0,-599.0,-127.0,-230.0,16507.713106302763
16.65826392173767,-1236.0,-40.0,16252.0,-583.0,-159.0,-227.0,16298.981563275664
16.681612730026245,-1096.0,8.0,16312.0,-574.0,-151.0,-233.0,16348.780504979568
16.70447564125061,-1256.0,-40.0,16476.0,-636.0,-38.0,-239.0,16523.852819484928
16.7282133102417,-1160.0,-104.0,16412.0,-604.0,-62.0,-222.0,16453.2720150127
16.751394748687744,-1212.0,-36.0,16340.0,-618.0,-94.0,-206.0,16384.92721985667
16.774223566055298,-1212.0,36.0,16300.0,-625.0,-62.0,-239.0,16345.0371672872
16.798619985580444,-996.0,-28.0,16252.0,-629.0,-50.0,-222.0,16282.51528480781
16.822251558303833,-1176.0,-40.0,16376.0,-631.0,-50.0,-233.0,16418.22012277823
16.8459153175354,-1052.0,120.0,16296.0,-653.0,-50.0,-236.0,16330.3619065837
16.868011713027954,-1156.0,12.0,16340.0,-635.0,-11.0,-244.0,16380.844911053886
16.890876054763794,-1240.0,-128.0,16344.0,-600.0,-119.0,-221.0,16391.470952907184
16.912941694259644,-1084.0,24.0,16400.0,-616.0,-116.0,-232.0,16435.803357305052
16.93521237373352,-1080.0,-128.0,16388.0,-599.0,-97.0,-216.0,16424.047247861898
16.957953929901123,-1140.0,-28.0,16344.0,-606.0,-88.0,-220.0,16383.733396268386
16.97989058494568,-1176.0,-128.0,16228.0,-617.0,-36.0,-208.0,16271.058478169145
17.001906394958496,-1168.0,-52.0,16564.0,-626.0,-67.0,-231.0,16605.21074843677
17.02349090576172,-1168.0,12.0,16428.0,-607.0,-101.0,-233.0,16469.473337056046
17.045749187469482,-1092.0,-80.0,16396.0,-589.0,-124.0,-244.0,16432.518979146196
17.067991971969604,-1140.0,-144.0,16392.0,-616.0,-108.0,-239.0,16432.224438584082
17.089980840682983,-1132.0,-80.0,16240.0,-646.0,-58.0,-250.0,16279.601469323505
17.111700296401978,-1172.0,-92.0,16436.0,-621.0,-74.0,-241.0,16477.98968321075
17.133461952209473,-1148.0,-52.0,16236.0,-614.0,-40.0,-238.0,16276.61832199797
17.155980587005615,-1164.0,-20.0,16304.0,-625.0,-55.0,-245.0,16345.510453944227
17.17823100090027,-1192.0,-96.0,16300.0,-629.0,-58.0,-245.0,16343.808613661628
17.199851512908936,-1292.0,-72.0,16388.0,-663.0,-22.0,-233.0,16439.008242591764
17.22115182876587,-1192.0,-104.0,16396.0,-647.0,-22.0,-233.0,16439.601455023174
17.24310326576233,-1132.0,-84.0,16264.0,-630.0,-52.0,-212.0,16303.563291501647
17.26522421836853,-1108.0,-72.0,16208.0,-607.0,-86.0,-212.0,16245.987566165377
17.287901878356934,-1064.0,32.0,16508.0,-614.0,-102.0,-232.0,16542.284727328326
17.310027599334717,-1132.0,-40.0,16412.0,-621.0,-122.0,-219.0,16451.04154757382
17.332154989242554,-1144.0,-24.0,16376.0,-622.0,-70.0,-221.0,16415.92787508522
17.354753017425537,-1192.0,-40.0,16516.0,-613.0,-133.0,-246.0,16559.00721661779
17.37638020515442,-1152.0,-136.0,16428.0,-617.0,-52.0,-215.0,16468.903545773774
17.397794485092163,-1204.0,-76.0,16452.0,-617.0,-64.0,-230.0,16496.1721620502
17.41950750350952,-1068.0,-20.0,16364.0,-607.0,-92.0,-239.0,16398.826787304024
17.441187620162964,-1256.0,-48.0,16432.0,-608.0,-84.0,-223.0,16480.001941747458
17.46859335899353,-1128.0,-24.0,16500.0,-574.0,-122.0,-221.0,16538.52955978856
17.490548849105835,-1216.0,-124.0,16340.0,-590.0,-158.0,-226.0,16385.653236902093
17.512181043624878,-1172.0,44.0,16272.0,-604.0,-117.0,-241.0,16314.211718621284
17.534321308135986,-1148.0,-16.0,16480.0,-613.0,-91.0,-238.0,16519.944309833492
17.55628538131714,-1120.0,-40.0,16348.0,-610.0,-70.0,-266.0,16386.36945757052
17.578189611434937,-1168.0,20.0,16284.0,-614.0,-76.0,-225.0,16325.846991810256
17.59954261779785,-1116.0,-12.0,16300.0,-638.0,-44.0,-225.0,16338.16391152935
17.621300220489502,-1144.0,-100.0,16404.0,-653.0,6.0,-238.0,16444.14643573816
17.643310546875,-1200.0,-40.0,16300.0,-636.0,-29.0,-245.0,16344.161036896327
17.66442322731018,-1292.0,-128.0,16420.0,-636.0,20.0,-234.0,16471.24913295892
17.68593692779541,-1256.0,-28.0,16264.0,-605.0,-78.0,-244.0,16312.449724060454
17.707710027694702,-1160.0,16.0,16456.0,-610.0,-109.0,-233.0,16496.841879584103
17.72897481918335,-1192.0,-112.0,16352.0,-607.0,-137.0,-237.0,16395.771162101526
17.7504985332489,-1168.0,24.0,16408.0,-589.0,-137.0,-226.0,16449.53689317727
17.773303031921387,-1128.0,-12.0,16336.0,-640.0,-118.0,-233.0,16374.902259250282
17.795780658721924,-1112.0,-72.0,16400.0,-638.0,-50.0,-225.0,16437.813966583268
17.818594694137573,-1260.0,-52.0,16412.0,-617.0,-36.0,-223.0,16460.378124453884
17.840547800064087,-1232.0,-92.0,16508.0,-610.0,-61.0,-228.0,16554.16418910964
17.8627347946167,-1180.0,-52.0,16412.0,-639.0,-72.0,-234.0,16454.44766620867
17.884630918502808,-1140.0,0.0,16264.0,-645.0,-26.0,-226.0,16303.90431767802
17.906145334243774,-1176.0,-88.0,16316.0,-636.0,-41.0,-255.0,16358.562773055584
17.928836584091187,-1140.0,-120.0,16448.0,-604.0,-64.0,-233.0,16487.8956813779
17.95158290863037,-1120.0,-12.0,16320.0,-584.0,-97.0,-262.0,16358.39062988777
17.9742534160614,-1180.0,-64.0,16348.0,-596.0,-48.0,-255.0,16390.655874613436
17.995611429214478,-1152.0,-56.0,16364.0,-628.0,-10.0,-247.0,16404.594966045337
18.0175838470459,-1252.0,-192.0,16488.0,-634.0,89.0,-239.0,16536.58102510915
18.038710355758667,-1084.0,24.0,16320.0,-626.0,-63.0,-238.0,16355.978478831525
18.060006380081177,-1220.0,32.0,16296.0,-603.0,-63.0,-221.0,16341.63516910104
18.08155608177185,-1260.0,-20.0,16424.0,-638.0,-105.0,-247.0,16472.27294577163
18.103277683258057,-1196.0,-68.0,16504.0,-602.0,-115.0,-242.0,16547.418408924095
18.1245379447937,-1168.0,-12.0,16276.0,-592.0,-128.0,-243.0,16317.859663571078
18.14681053161621,-1192.0,-20.0,16420.0,-576.0,-115.0,-235.0,16463.22155594099
18.16837739944458,-1004.0,-108.0,16448.0,-602.0,-81.0,-236.0,16478.96792884797
18.189729690551758,-1264.0,-116.0,16416.0,-636.0,-26.0,-245.0,16464.999483753407
18.2107675075531,-1192.0,-104.0,16444.0,-621.0,-66.0,-234.0,16487.474518554987
18.232866287231445,-1208.0,-112.0,16384.0,-603.0,-107.0,-236.0,16428.854616192817
18.254606246948242,-1124.0,-48.0,16448.0,-612.0,-92.0,-228.0,16486.430298885203
18.275933265686035,-1108.0,-36.0,16608.0,-618.0,-79.0,-251.0,16644.957915236675
18.297770738601685,-1076.0,40.0,16388.0,-643.0,-33.0,-243.0,16423.334618767287
18.32012104988098,-1172.0,4.0,16376.0,-652.0,11.0,-241.0,16417.88585658945
18.342028379440308,-1148.0,-76.0,16384.0,-636.0,-14.0,-258.0,16424.345831721883
18.364399909973145,-1208.0,-120.0,16372.0,-623.0,-4.0,-218.0,16416.943929976736
18.385881185531616,-1256.0,12.0,16416.0,-601.0,-99.0,-232.0,16463.982993188496
18.407440185546875,-1140.0,16.0,16252.0,-616.0,-99.0,-232.0,16291.941566308173
18.428666591644287,-1260.0,12.0,16576.0,-650.0,3.0,-245.0,16623.823868171847
18.456929683685303,-1152.0,-36.0,16436.0,-656.0,-43.0,-242.0,16476.36173431501
18.478252410888672,-1116.0,-120.0,16416.0,-646.0,-58.0,-256.0,16454.328062853252
18.50369143486023,-1280.0,-72.0,16368.0,-570.0,-151.0,-210.0,16418.130466042716
18.529048204421997,-1028.0,-120.0,16348.0,-590.0,-136.0,-207.0,16380.729165699553
18.553936004638672,-1152.0,24.0,16416.0,-590.0,-102.0,-230.0,16456.38891130129
18.579565286636353,-1140.0,-28.0,16416.0,-592.0,-84.0,-237.0,16455.559546852244
18.60427212715149,-976.0,-124.0,16452.0,-634.0,-29.0,-257.0,16481.391203414838
18.62832546234131,-1108.0,-136.0,16256.0,-622.0,-67.0,-238.0,16294.284151198543
18.653249263763428,-1124.0,-100.0,16488.0,-622.0,-62.0,-232.0,16526.570122079174
18.67802143096924,-1328.0,-192.0,16556.0,-563.0,-218.0,-218.0,16610.285488214824
18.70210337638855,-1196.0,-20.0,16480.0,-605.0,-111.0,-245.0,16523.35365475181
18.72612190246582,-1148.0,24.0,16396.0,-591.0,-66.0,-200.0,16436.15818857923
18.750418424606323,-1112.0,-88.0,16276.0,-643.0,-15.0,-244.0,16314.179844540147
18.77438497543335,-1172.0,-28.0,16480.0,-668.0,57.0,-246.0,16521.645438635947
18.799647331237793,-1076.0,-24.0,16228.0,-638.0,94.0,-243.0,16263.650758670392
18.82391619682312,-1212.0,16.0,16360.0,-624.0,-43.0,-209.0,16404.84074899845
18.848631143569946,-1232.0,-36.0,16344.0,-609.0,-73.0,-253.0,16390.407438498896
18.873050212860107,-1124.0,-8.0,16356.0,-613.0,-65.0,-235.0,16394.577640183354
18.89795207977295,-1184.0,-72.0,16352.0,-605.0,-52.0,-230.0,16394.967032598754
18.92219042778015,-1124.0,24.0,16356.0,-620.0,-56.0,-235.0,16394.593255094802
18.947046995162964,-1184.0,-96.0,16304.0,-614.0,-40.0,-256.0,16347.216521475453
18.971697330474854,-1220.0,-112.0,16436.0,-619.0,-84.0,-245.0,16481.597009998757
18.996992826461792,-1200.0,-60.0,16492.0,-612.0,-74.0,-250.0,16535.708754087318
19.024062156677246,-1200.0,-140.0,16492.0,-602.0,-67.0,-238.0,16536.19254846774
19.04838228225708,-1212.0,-28.0,16300.0,-626.0,-52.0,-217.0,16345.021505033268
19.07531499862671,-1160.0,-60.0,16240.0,-619.0,-80.0,-204.0,16281.486418628981
19.101277589797974,-1208.0,-60.0,16368.0,-540.0,-228.0,-220.0,16412.625871566073
19.126990795135498,-1164.0,-116.0,16280.0,-559.0,-189.0,-224.0,16321.971449552288
19.15202522277832,-1264.0,-56.0,16412.0,-595.0,-146.0,-214.0,16460.697919590166
19.177308559417725,-1132.0,-28.0,16392.0,-609.0,-72.0,-227.0,16431.064238204413
19.202842235565186,-1204.0,-84.0,16396.0,-612.0,-43.0,-240.0,16440.361553201925
19.230372428894043,-1192.0,-40.0,16392.0,-645.0,-21.0,-219.0,16435.331697291662
19.25593614578247,-1104.0,-68.0,16432.0,-670.0,11.0,-262.0,16469.185286467575
19.281344413757324,-1144.0,-64.0,16384.0,-616.0,-61.0,-245.0,16424.015586938538
19.30687952041626,-1176.0,-36.0,16404.0,-643.0,-55.0,-245.0,16446.138999777424
19.334421634674072,-1248.0,-116.0,16608.0,-586.0,-151.0,-218.0,16655.228128128416
19.360766649246216,-1168.0,-52.0,16436.0,-588.0,-156.0,-240.0,16477.53088299336
19.386559009552002,-1256.0,-156.0,16400.0,-620.0,-82.0,-241.0,16448.76506002806
19.412400007247925,-1132.0,12.0,16408.0,-574.0,-117.0,-216.0,16447.00677935046
19.438531398773193,-1128.0,-12.0,16504.0,-579.0,-159.0,-239.0,16542.507186034407
19.465181350708008,-1068.0,-92.0,16348.0,-586.0,-90.0,-221.0,16383.106909252592
19.492939233779907,-1184.0,-128.0,16396.0,-589.0,-114.0,-247.0,16439.192680907418
19.519092082977295,-1128.0,-8.0,16508.0,-606.0,-105.0,-238.0,16546.495459764283
19.54510188102722,-1160.0,-4.0,16368.0,-614.0,-58.0,-237.0,16409.053598547358
19.5711190700531,-1108.0,-80.0,16568.0,-620.0,-83.0,-207.0,16605.200631127587
19.59725546836853,-1176.0,-60.0,16372.0,-607.0,-63.0,-212.0,16414.29133407836
19.62386417388916,-1164.0,-164.0,16468.0,-631.0,-71.0,-250.0,16509.90054482461
19.650425910949707,-1164.0,0.0,16276.0,-602.0,-58.0,-237.0,16317.56942684786
19.675400257110596,-1204.0,-88.0,16312.0,-589.0,-87.0,-242.0,16356.61040680495
19.702372789382935,-1224.0,24.0,16284.0,-634.0,-36.0,-228.0,16329.954317143694
19.727059364318848,-1204.0,4.0,16404.0,-628.0,-43.0,-222.0,16448.125972280246
19.75163507461548,-1148.0,-96.0,16320.0,-617.0,-26.0,-238.0,16360.608790628788
19.777036666870117,-1116.0,-88.0,16348.0,-641.0,-5.0,-239.0,16386.284020484938
19.802907466888428,-1164.0,-40.0,16500.0,-611.0,-83.0,-237.0,16541.054863581103
19.82877469062805,-1236.0,-100.0,16448.0,-567.0,-112.0,-243.0,16494.677929562615
19.855074882507324,-1132.0,-96.0,16276.0,-609.0,-151.0,-232.0,16315.600387359333
19.880860805511475,-1148.0,-120.0,16236.0,-615.0,-91.0,-238.0,16276.977606423128
19.90588617324829,-1156.0,-60.0,16552.0,-641.0,-29.0,-223.0,16592.427188329017
19.93120002746582,-1072.0,-48.0,16428.0,-619.0,-66.0,-232.0,16463.009202451416
19.95763874053955,-1088.0,-52.0,16460.0,-599.0,-70.0,-239.0,16496.000969932076
19.98567485809326,-1256.0,52.0,16304.0,-614.0,-82.0,-233.0,16352.389917073284
20.01118016242981,-1140.0,-48.0,16424.0,-655.0,-57.0,-226.0,16463.586486546606
20.03610110282898,-1096.0,-12.0,16328.0,-614.0,-97.0,-237.0,16364.746988572722
20.061200857162476,-1200.0,-20.0,16156.0,-597.0,-108.0,-234.0,16200.51653497505
20.083984851837158,-1124.0,-120.0,16400.0,-620.0,-64.0,-243.0,16438.910426180926
20.106574058532715,-1184.0,-80.0,16468.0,-634.0,-30.0,-237.0,16510.70198386489
20.128576278686523,-1168.0,52.0,16460.0,-623.0,-28.0,-243.0,16501.47047992996
20.15024995803833,-1188.0,-112.0,16264.0,-593.0,-105.0,-229.0,16307.715474584415
20.172200679779053,-1028.0,-24.0,16464.0,-588.0,-105.0,-210.0,16496.08001920456
20.194018840789795,-1324.0,-76.0,16364.0,-613.0,-131.0,-230.0,16417.650501822725
20.21626925468445,-1212.0,-24.0,16492.0,-607.0,-123.0,-240.0,16536.492493875478
20.23892116546631,-1152.0,-4.0,16224.0,-625.0,-41.0,-245.0,16264.848477621917
20.261200428009033,-1228.0,-16.0,16480.0,-641.0,-13.0,-240.0,16525.696354465672
20.28325319290161,-1140.0,-36.0,16348.0,-654.0,0.0,-238.0,16387.739319381424
20.3059561252594,-1156.0,-28.0,16404.0,-630.0,-32.0,-238.0,16444.70540934072
20.328670263290405,-1212.0,-64.0,16476.0,-626.0,-76.0,-235.0,16520.642118271313
20.350714683532715,-1144.0,-132.0,16380.0,-651.0,-78.0,-233.0,16420.43117582483
20.373045921325684,-1036.0,-48.0,16520.0,-635.0,-30.0,-224.0,16552.522466379556
20.396873235702515,-1168.0,-44.0,16284.0,-639.0,-41.0,-232.0,16325.894033712211
20.418993949890137,-1160.0,32.0,16492.0,-640.0,-90.0,-223.0,16532.77617340778
20.440725564956665,-1216.0,-140.0,16532.0,-575.0,-180.0,-211.0,16577.251883228415
20.463297367095947,-1120.0,-36.0,16336.0,-551.0,-232.0,-227.0,16374.388293918035
20.486411571502686,-968.0,112.0,16180.0,-616.0,-36.0,-238.0,16209.317320602988
20.50875210762024,-1132.0,-80.0,16280.0,-655.0,-36.0,-250.0,16319.504404239731
20.530634880065918,-1196.0,-40.0,16416.0,-656.0,55.0,-260.0,16459.558681811613
20.552470684051514,-1208.0,-32.0,16452.0,-649.0,-19.0,-249.0,16496.320559445976
20.574477195739746,-1176.0,-60.0,16376.0,-631.0,-92.0,-232.0,16418.281030607315
20.596986532211304,-1212.0,-48.0,16264.0,-628.0,-57.0,-232.0,16309.167483351197
20.618913173675537,-1232.0,-132.0,16540.0,-628.0,-93.0,-225.0,16586.345227324793
20.64194631576538,-1252.0,-100.0,16392.0,-611.0,-64.0,-230.0,16440.04768849531
20.66382122039795,-1184.0,-44.0,16316.0,-615.0,-44.0,-235.0,16358.962314278984
20.685590267181396,-1116.0,-128.0,16408.0,-615.0,-50.0,-240.0,16446.407024028074
20.707380056381226,-1184.0,24.0,16380.0,-618.0,-87.0,-218.0,16422.753484114655
20.730114698410034,-1156.0,-76.0,16424.0,-598.0,-114.0,-236.0,16464.80756036948
20.753468990325928,-1196.0,-108.0,16448.0,-603.0,-98.0,-233.0,16491.77928545007
20.776497840881348,-1148.0,-56.0,16264.0,-612.0,-106.0,-222.0,16304.561815639205
20.799735069274902,-1188.0,-76.0,16288.0,-627.0,-78.0,-237.0,16331.44402678465
20.82250952720642,-1148.0,-148.0,16464.0,-618.0,-74.0,-218.0,16504.638863059077
20.845797061920166,-1136.0,-8.0,16380.0,-639.0,-69.0,-218.0,16419.347124657546
20.868430614471436,-1068.0,-104.0,16428.0,-626.0,-71.0,-228.0,16463.007744637674
20.89091420173645,-1168.0,-152.0,16312.0,-621.0,-87.0,-246.0,16354.469480848347
20.913031578063965,-1128.0,-16.0,16200.0,-613.0,-71.0,-210.0,16239.23150891076
20.935114860534668,-1164.0,-124.0,16368.0,-624.0,-40.0,-234.0,16409.80487391608
20.957123279571533,-1136.0,8.0,16464.0,-679.0,38.0,-252.0,16503.14685143412
20.98250961303711,-1184.0,-148.0,16512.0,-629.0,-8.0,-256.0,16555.05675012925
21.00504732131958,-1080.0,-64.0,16360.0,-618.0,-113.0,-238.0,16395.734079326852
21.028383016586304,-1216.0,-24.0,16276.0,-572.0,-125.0,-235.0,16321.378863319116
21.05123543739319,-1192.0,-128.0,16416.0,-577.0,-156.0,-243.0,16459.71761604676
21.073649406433105,-1264.0,-136.0,16408.0,-580.0,-169.0,-228.0,16457.176428537186
21.09631085395813,-1140.0,-48.0,16348.0,-607.0,-51.0,-215.0,16387.770074052176
21.118378162384033,-1192.0,-164.0,16388.0,-659.0,10.0,-267.0,16432.11197624943
21.140158653259277,-1112.0,-104.0,16320.0,-682.0,81.0,-251.0,16358.171046911082
21.1622314453125,-1244.0,-80.0,16420.0,-609.0,-77.0,-253.0,16467.250408006796
21.184680700302124,-1116.0,8.0,16328.0,-595.0,-125.0,-249.0,16366.09617471436
21.207417964935303,-1108.0,-68.0,16328.0,-605.0,-89.0,-252.0,16365.691919378172
21.229779958724976,-1144.0,-68.0,16456.0,-623.0,-67.0,-253.0,16495.856934394164
21.252363204956055,-1168.0,-128.0,16256.0,-630.0,-74.0,-234.0,16298.409247530877
21.27458119392395,-1256.0,-88.0,16264.0,-613.0,-105.0,-226.0,16312.663056656324
21.297597408294678,-1160.0,28.0,16368.0,-569.0,-119.0,-241.0,16409.077000245932
21.320513010025024,-1116.0,0.0,16412.0,-598.0,-143.0,-232.0,16449.899695742828
21.342774868011475,-1144.0,-32.0,16308.0,-611.0,-97.0,-243.0,16348.10765807468
21.364624500274658,-1200.0,-28.0,16336.0,-616.0,-119.0,-219.0,16380.039071992473
21.3872332572937,-884.0,0.0,16200.0,-638.0,76.0,-233.0,16224.101084497717
21.409708976745605,-1176.0,12.0,16424.0,-595.0,-88.0,-246.0,16466.05283606244
21.43157434463501,-1156.0,-52.0,16428.0,-609.0,-98.0,-228.0,16468.70438134099
21.454575300216675,-1132.0,-32.0,16392.0,-615.0,-43.0,-221.0,16431.071541442452
21.476637840270996,-996.0,-80.0,16360.0,-632.0,-33.0,-234.0,16390.48553277175
21.4987735748291,-1112.0,-48.0,16388.0,-652.0,2.0,-241.0,16425.753924858367
21.52073860168457,-1116.0,-120.0,16408.0,-590.0,-86.0,-242.0,16446.346706791755
21.542522430419922,-1128.0,-172.0,16284.0,-602.0,-107.0,-223.0,16323.927958674652
21.56532382965088,-1128.0,-64.0,16444.0,-618.0,-83.0,-219.0,16482.767243396964
21.587794303894043,-1060.0,-80.0,16360.0,-627.0,-13.0,-237.0,16394.49907743448
21.610109329223633,-1196.0,-64.0,16380.0,-654.0,40.0,-235.0,16423.73014878167
21.632500171661377,-1180.0,-156.0,16328.0,-555.0,-194.0,-236.0,16371.326152758671
21.654775381088257,-1160.0,-60.0,16408.0,-651.0,-12.0,-244.0,16449.062708859736
21.677051782608032,-1220.0,8.0,16324.0,-632.0,-53.0,-232.0,16369.527787935729
21.698942184448242,-1100.0,-76.0,16376.0,-622.0,-79.0,-236.0,16413.07868743704
21.72148847579956,-1148.0,-64.0,16404.0,-623.0,-98.0,-252.0,16444.245680480453
21.7436420917511,-1052.0,20.0,16288.0,-601.0,-110.0,-221.0,16321.949883515756
21.7653329372406,-1236.0,-56.0,16376.0,-578.0,-180.0,-216.0,16422.673594759166
21.78787589073181,-1160.0,-4.0,16516.0,-591.0,-161.0,-243.0,16556.686625046692
21.810644149780273,-1168.0,-136.0,16348.0,-583.0,-112.0,-246.0,16390.235629788855
21.8347589969635,-1128.0,20.0,16320.0,-645.0,53.0,-246.0,16358.948132444213
21.85796093940735,-1224.0,-32.0,16372.0,-661.0,33.0,-235.0,16417.721644613175
21.882269382476807,-1012.0,44.0,16328.0,-627.0,-48.0,-255.0,16359.390697700204
21.905691385269165,-1084.0,20.0,16360.0,-595.0,-120.0,-232.0,16395.885337486354
21.928582906723022,-1144.0,-44.0,16456.0,-524.0,-292.0,-242.0,16495.775459189543
21.951746225357056,-1180.0,-36.0,16180.0,-583.0,-154.0,-245.0,16223.01131109758
21.975402355194092,-1184.0,-60.0,16380.0,-595.0,-88.0,-247.0,16422.845551243547
22.00003433227539,-1100.0,-28.0,16412.0,-620.0,-25.0,-237.0,16448.845795374215
22.024295806884766,-1316.0,-52.0,16412.0,-689.0,107.0,-248.0,16464.75945770238
22.047696113586426,-904.0,52.0,16060.0,-617.0,-81.0,-237.0,16085.506519845745
22.072640657424927,-1012.0,-8.0,16440.0,-601.0,-40.0,-240.0,16471.120423334898
22.096685647964478,-1144.0,-80.0,16352.0,-627.0,-70.0,-233.0,16392.163981610236
22.12000608444214,-1236.0,-128.0,16400.0,-536.0,-263.0,-228.0,16447.008238582483
22.143775939941406,-1020.0,12.0,16208.0,-749.0,267.0,-242.0,16240.067980153284
22.16768503189087,-1064.0,-60.0,16180.0,-653.0,38.0,-201.0,16215.057693391042
22.195068359375,-1092.0,0.0,16324.0,-600.0,-94.0,-230.0,16360.484100417078
22.223796844482422,-1220.0,4.0,16520.0,-681.0,89.0,-231.0,16564.98765468903
22.248805046081543,-1120.0,-76.0,16288.0,-591.0,-153.0,-232.0,16326.638355766934
22.273128747940063,-1152.0,-124.0,16428.0,-625.0,-58.0,-222.0,16468.808821526833
22.29732322692871,-1124.0,-44.0,16232.0,-690.0,111.0,-259.0,16270.929168305049
22.32101535797119,-1532.0,-176.0,16528.0,-530.0,-273.0,-213.0,16599.782649179477
22.344932317733765,-1328.0,-116.0,16460.0,-587.0,-176.0,-208.0,16513.892333426422
22.368935346603394,-1132.0,-100.0,16444.0,-626.0,-97.0,-233.0,16483.220559101912
22.39348578453064,-1168.0,-8.0,16416.0,-627.0,-120.0,-237.0,16457.501146893475
22.41816473007202,-1268.0,-104.0,16472.0,-558.0,-197.0,-220.0,16521.060014417963
22.44293451309204,-860.0,-28.0,16244.0,-559.0,-294.0,-213.0,16266.77349691696
22.466636896133423,-1088.0,0.0,16360.0,-570.0,-184.0,-218.0,16396.138081877696
22.491166353225708,-860.0,-28.0,16184.0,-757.0,243.0,-245.0,16206.857807730652
22.514612913131714,-1132.0,100.0,16504.0,-597.0,-175.0,-223.0,16543.07831088277
22.539103269577026,-1104.0,-40.0,16472.0,-625.0,-122.0,-219.0,16509.00360409434
22.564013481140137,-1084.0,-172.0,16312.0,-587.0,-73.0,-232.0,16348.883264614742
22.589813232421875,-1148.0,-24.0,16428.0,-538.0,-331.0,-207.0,16468.08015525793
22.613630533218384,-1108.0,-36.0,16444.0,-618.0,-66.0,-238.0,16481.32567483575
22.63679337501526,-1076.0,-28.0,16420.0,-620.0,-67.0,-223.0,16455.241110357514
22.659080266952515,-1148.0,28.0,16520.0,-623.0,-116.0,-223.0,16559.863767555576
22.681726455688477,-1156.0,-48.0,16428.0,-625.0,-67.0,-240.0,16468.692237090352
22.704617023468018,-1268.0,8.0,16460.0,-608.0,-79.0,-234.0,16508.770032924924
22.727117776870728,-1076.0,-140.0,16444.0,-615.0,-14.0,-229.0,16479.760677873935
22.749239683151245,-1320.0,-164.0,16444.0,-727.0,269.0,-245.0,16497.709901680293
22.77179479598999,-1096.0,36.0,16292.0,-676.0,97.0,-240.0,16328.86327948152
22.79625701904297,-1180.0,-48.0,16416.0,-620.0,-40.0,-254.0,16458.42519805586
22.82034969329834,-1240.0,-20.0,16444.0,-575.0,-135.0,-243.0,16490.698469137078
22.8437979221344,-1160.0,-36.0,16400.0,-553.0,-225.0,-232.0,16441.012620881964
22.867969274520874,-1084.0,-84.0,16196.0,-642.0,-17.0,-236.0,16232.45292615999
22.89258623123169,-1148.0,-116.0,16408.0,-621.0,-31.0,-222.0,16448.520419782442
22.916104793548584,-1200.0,-124.0,16572.0,-584.0,-120.0,-211.0,16615.852671470097
22.942811965942383,-1312.0,36.0,16388.0,-603.0,-60.0,-231.0,16440.473959104707
22.966527938842773,-1164.0,-100.0,16316.0,-585.0,-177.0,-214.0,16357.773442617427
22.989872455596924,-1088.0,-52.0,16252.0,-582.0,-44.0,-221.0,16288.46070075377
23.01212215423584,-1152.0,44.0,16336.0,-727.0,261.0,-275.0,16376.627735892393
23.035227298736572,-1016.0,-28.0,16384.0,-634.0,-107.0,-239.0,16415.495606286153
23.05781865119934,-1116.0,-76.0,16396.0,-603.0,-46.0,-208.0,16434.112327716397
23.080848693847656,-1052.0,-52.0,16324.0,-616.0,-71.0,-225.0,16357.945592280224
23.10332942008972,-1172.0,-44.0,16312.0,-636.0,-45.0,-245.0,16354.108474631077
23.12646794319153,-1128.0,36.0,16208.0,-652.0,9.0,-229.0,16247.244197093856
23.149914264678955,-1168.0,0.0,16360.0,-630.0,-52.0,-245.0,16401.64089352038
23.17269802093506,-1188.0,44.0,16468.0,-633.0,-67.0,-226.0,16510.854126906943
23.19551396369934,-1060.0,-64.0,16420.0,-626.0,-59.0,-243.0,16454.30326692686
23.21829652786255,-1112.0,-72.0,16336.0,-623.0,-47.0,-233.0,16373.961768612995
23.24175715446472,-1256.0,0.0,16504.0,-551.0,-238.0,-223.0,16551.723535632173
23.2652485370636,-852.0,-32.0,16140.0,-761.0,320.0,-252.0,16162.503766434209
23.28793692588806,-1012.0,28.0,16100.0,-612.0,-26.0,-235.0,16131.798659789923
23.311265468597412,-1052.0,12.0,16272.0,-659.0,50.0,-239.0,16305.975346479585
23.33446764945984,-1060.0,12.0,16344.0,-635.0,-78.0,-238.0,16378.341796409062
23.357571363449097,-1224.0,-16.0,16376.0,-542.0,-207.0,-228.0,16421.687124044227
23.38033890724182,-1128.0,-104.0,16348.0,-622.0,-60.0,-215.0,16387.199394649473
23.403395414352417,-1156.0,24.0,16444.0,-666.0,61.0,-246.0,16484.60032879172
23.426678895950317,-1480.0,-124.0,16440.0,-541.0,-242.0,-212.0,16506.9493244512
23.44948649406433,-1272.0,-32.0,16372.0,-596.0,-147.0,-230.0,16421.36997938966
23.472641944885254,-1284.0,-80.0,16380.0,-610.0,-104.0,-238.0,16430.442964205195
23.495462894439697,-1184.0,-68.0,16416.0,-615.0,-80.0,-217.0,16458.78294406971
23.519211053848267,-1160.0,-108.0,16328.0,-570.0,-162.0,-233.0,16369.509705547078
23.54163384437561,-1016.0,-12.0,16232.0,-541.0,-246.0,-222.0,16263.770288589298
23.564574718475342,-1212.0,-192.0,16324.0,-624.0,-21.0,-247.0,16370.057544187192
23.587661504745483,-1116.0,-28.0,16276.0,-632.0,-29.0,-214.0,16314.239669687337
23.610143423080444,-1196.0,-60.0,16356.0,-609.0,-71.0,-233.0,16399.779022901497
23.6329185962677,-1248.0,-68.0,16344.0,-630.0,-15.0,-241.0,16391.71937290289
23.655531883239746,-1120.0,-20.0,16424.0,-634.0,-40.0,-259.0,16462.155873396412
23.67796564102173,-1164.0,-48.0,16340.0,-664.0,-4.0,-217.0,16381.477344855073
23.700562715530396,-1216.0,-92.0,16328.0,-663.0,78.0,-245.0,16373.475623703112
23.722927808761597,-1280.0,-48.0,16536.0,-536.0,-245.0,-210.0,16585.53586713435
23.7453932762146,-1152.0,-44.0,16312.0,-601.0,-103.0,-239.0,16352.687363244
23.768553495407104,-1208.0,-84.0,16464.0,-616.0,-79.0,-217.0,16508.471037621868
23.792006015777588,-1124.0,-68.0,16280.0,-596.0,-116.0,-246.0,16318.897021551425
23.816179513931274,-1152.0,-40.0,16312.0,-625.0,-71.0,-242.0,16352.677089700022
23.839802980422974,-1120.0,-108.0,16388.0,-626.0,-91.0,-253.0,16426.58235909101
23.863673210144043,-1280.0,-32.0,16380.0,-627.0,-74.0,-226.0,16429.96725498867
23.88815927505493,-1204.0,-12.0,16404.0,-585.0,-164.0,-233.0,16448.129863300568
23.91206693649292,-1156.0,-92.0,16340.0,-515.0,-263.0,-224.0,16381.098864239846
23.935372591018677,-1204.0,-104.0,16456.0,-671.0,51.0,-247.0,16500.31417882702
23.958354711532593,-976.0,-60.0,16376.0,-615.0,-45.0,-232.0,16405.16845387453
23.981662034988403,-1112.0,52.0,16344.0,-634.0,-99.0,-234.0,16381.867537005663
24.005284786224365,-1100.0,-100.0,16280.0,-664.0,62.0,-248.0,16317.426267644048
24.031939268112183,-1108.0,-44.0,16264.0,-667.0,119.0,-233.0,16301.757451268866
24.05812668800354,-1132.0,-4.0,16340.0,-649.0,0.0,-221.0,16379.164813872532
24.081931591033936,-1156.0,-96.0,16332.0,-597.0,-93.0,-248.0,16373.141909847358
24.106703281402588,-1056.0,-180.0,16356.0,-571.0,-120.0,-200.0,16391.04243176742
24.13092303276062,-1160.0,-128.0,16388.0,-609.0,-137.0,-228.0,16429.501757509264
24.15585970878601,-1132.0,32.0,16372.0,-632.0,-53.0,-243.0,16411.119157449317
24.182185649871826,-1276.0,-20.0,16520.0,-648.0,44.0,-236.0,16569.21772444312
24.21256685256958,-1068.0,-68.0,16396.0,-510.0,-359.0,-243.0,16430.887498854103
24.238719940185547,-1096.0,-64.0,16340.0,-574.0,-139.0,-248.0,16376.840720969352
24.261849641799927,-1168.0,-120.0,16348.0,-539.0,-244.0,-217.0,16390.110676868535
24.285274982452393,-1000.0,-4.0,16328.0,-610.0,-91.0,-249.0,16358.594071618747
24.309233903884888,-1040.0,-60.0,16400.0,-610.0,-99.0,-244.0,16433.052059797046
24.332955837249756,-1092.0,44.0,16520.0,-598.0,-97.0,-250.0,16556.110654377735
24.356918334960938,-1220.0,-68.0,16404.0,-627.0,-56.0,-231.0,16449.444975439143
24.38003396987915,-1148.0,-88.0,16428.0,-666.0,34.0,-251.0,16468.297786960255
24.403451204299927,-1208.0,-272.0,16436.0,-692.0,120.0,-251.0,16482.576982984185
24.4267578125,-1376.0,-128.0,16560.0,-642.0,-36.0,-221.0,16617.561794679747
24.450820922851562,-1228.0,-92.0,16356.0,-621.0,-41.0,-229.0,16402.29203495658
24.474547863006592,-1316.0,-44.0,16496.0,-617.0,-62.0,-248.0,16548.468448771928
24.497894525527954,-1224.0,-68.0,16496.0,-612.0,-69.0,-235.0,16541.48772027474
24.52135467529297,-1140.0,-28.0,16228.0,-590.0,-57.0,-240.0,16268.016719932397
24.544188499450684,-1184.0,-108.0,16384.0,-602.0,-63.0,-245.0,16427.080568378544
24.56807827949524,-1164.0,-92.0,16384.0,-625.0,-54.0,-243.0,16425.55375017841
24.591654062271118,-1168.0,-12.0,16444.0,-596.0,-62.0,-242.0,16485.43308499962
24.615617513656616,-1260.0,-76.0,16536.0,-587.0,-222.0,-221.0,16584.109020384545
24.639857292175293,-1196.0,-8.0,16328.0,-546.0,-198.0,-230.0,16371.745905675423
24.66356873512268,-1004.0,140.0,16260.0,-677.0,87.0,-235.0,16291.568862451522
24.685964822769165,-1088.0,-100.0,16444.0,-612.0,-60.0,-262.0,16480.257279545123
24.708901405334473,-1192.0,-24.0,16308.0,-600.0,-119.0,-229.0,16351.522987171562
24.73343324661255,-1244.0,-80.0,16360.0,-593.0,-95.0,-233.0,16407.423198052766
24.75749373435974,-1108.0,-20.0,16500.0,-613.0,-39.0,-236.0,16537.17218873892
24.7816264629364,-1104.0,-72.0,16600.0,-640.0,14.0,-226.0,16636.826620482647
24.805826663970947,-1096.0,-12.0,16440.0,-631.0,-31.0,-225.0,16476.497200558133
24.829822778701782,-1192.0,-124.0,16432.0,-611.0,-98.0,-244.0,16475.64457009194
24.8547260761261,-1252.0,-124.0,16268.0,-615.0,-139.0,-229.0,16316.577582324058
24.879087209701538,-1088.0,-28.0,16352.0,-613.0,-36.0,-239.0,16388.179642657084
24.903011798858643,-1156.0,-136.0,16272.0,-664.0,50.0,-266.0,16313.577657889762
24.927209615707397,-1408.0,-132.0,16504.0,-619.0,-99.0,-248.0,16564.477172552113
24.950671195983887,-1308.0,-200.0,16580.0,-577.0,-180.0,-238.0,16632.71667527587
24.97378373146057,-1072.0,-136.0,16436.0,-559.0,-189.0,-218.0,16471.48372187521
24.9970121383667,-1116.0,16.0,16364.0,-552.0,-233.0,-211.0,16402.0184123784
25.020586490631104,-1244.0,-124.0,16376.0,-686.0,94.0,-241.0,16423.650264176962
25.044045209884644,-1100.0,-64.0,16216.0,-632.0,-27.0,-240.0,16253.392015207164
25.06753635406494,-1224.0,-8.0,16340.0,-607.0,-86.0,-259.0,16385.781641410947
25.09190607070923,-1180.0,-92.0,16432.0,-640.0,-79.0,-228.0,16474.570950407175
25.116307258605957,-1236.0,-156.0,16328.0,-648.0,-24.0,-233.0,16375.457734060443
25.139986753463745,-1132.0,-28.0,16300.0,-632.0,2.0,-237.0,16339.284194847705
25.163296461105347,-1164.0,-24.0,16500.0,-649.0,-25.0,-234.0,16541.023910266256
25.185997009277344,-1120.0,-48.0,16348.0,-648.0,14.0,-227.0,16386.390938824814
25.21012234687805,-1280.0,-68.0,16324.0,-593.0,-110.0,-239.0,16374.24807433917
25.2343807220459,-1240.0,-52.0,16360.0,-593.0,-116.0,-236.0,16407.007771071483
25.258169412612915,-1208.0,4.0,16376.0,-614.0,-74.0,-216.0,16420.494998629
25.28138780593872,-1072.0,-60.0,16356.0,-610.0,-60.0,-216.0,16391.20251842433
25.304306030273438,-1300.0,-136.0,16376.0,-607.0,-93.0,-239.0,16428.08181133756
25.329056978225708,-1112.0,-164.0,16316.0,-549.0,-252.0,-223.0,16354.671993042233
25.353248596191406,-1152.0,44.0,16384.0,-731.0,199.0,-250.0,16424.509003315747
25.377117156982422,-1104.0,-44.0,16260.0,-623.0,-66.0,-220.0,16297.495267678405
25.400590658187866,-1088.0,-132.0,16384.0,-610.0,-80.0,-246.0,16420.61582280031
25.424460649490356,-1176.0,-32.0,16372.0,-634.0,-83.0,-238.0,16414.21286568442
25.449220895767212,-1112.0,-40.0,16324.0,-608.0,-20.0,-243.0,16361.8800875694
25.472246885299683,-1200.0,4.0,16504.0,-717.0,129.0,-265.0,16547.568764020896
25.495065927505493,-1436.0,-120.0,16464.0,-517.0,-408.0,-218.0,16526.941398819083
25.51909065246582,-1116.0,-96.0,16312.0,-572.0,-125.0,-235.0,16350.413328108865
25.54301404953003,-1188.0,-72.0,16380.0,-619.0,-76.0,-236.0,16423.18263918416
25.56626057624817,-1084.0,-108.0,16556.0,-638.0,-66.0,-244.0,16591.800866693164
25.590051651000977,-1084.0,-16.0,16324.0,-632.0,-79.0,-246.0,16359.95990215135
25.6135995388031,-1204.0,8.0,16380.0,-625.0,-80.0,-246.0,16424.191913150553
25.637377977371216,-1104.0,40.0,16416.0,-645.0,-73.0,-240.0,16453.129550331756
25.660422801971436,-1280.0,-76.0,16336.0,-597.0,-134.0,-214.0,16386.246428026156
25.683621406555176,-1108.0,-48.0,16244.0,-564.0,-246.0,-190.0,16281.815132226506
25.708245754241943,-1184.0,-76.0,16496.0,-669.0,84.0,-232.0,16538.610824370953
25.73122811317444,-1148.0,-16.0,16316.0,-620.0,-113.0,-225.0,16356.344823951347
25.766610622406006,-1228.0,-20.0,16340.0,-596.0,-112.0,-231.0,16386.09117513997
25.794719219207764,-1132.0,48.0,16356.0,-626.0,-29.0,-235.0,16395.19636966877
25.82008123397827,-1168.0,-92.0,16496.0,-670.0,75.0,-238.0,16537.554353652176
25.84537410736084,-1328.0,-164.0,16592.0,-601.0,-88.0,-244.0,16645.86867664166
25.870352745056152,-1208.0,24.0,16444.0,-600.0,-164.0,-229.0,16488.328478047737
25.89492130279541,-1116.0,-32.0,16520.0,-588.0,-99.0,-233.0,16557.683412844926
25.918420791625977,-1144.0,0.0,16408.0,-633.0,-91.0,-223.0,16447.8326839739
25.94259786605835,-1128.0,-112.0,16408.0,-596.0,-61.0,-243.0,16447.108925279237
25.96684956550598,-1244.0,-84.0,16220.0,-610.0,-71.0,-259.0,16267.851486905085
25.990726947784424,-1236.0,-92.0,16508.0,-600.0,-59.0,-247.0,16554.46235913447
26.014271020889282,-1248.0,-28.0,16408.0,-595.0,-147.0,-245.0,16455.417101975872
26.03796672821045,-1172.0,-64.0,16396.0,-517.0,-247.0,-227.0,16437.958997393805
26.06451439857483,-1336.0,-120.0,16512.0,-641.0,51.0,-259.0,16566.394900520754
26.08810257911682,-1100.0,68.0,16332.0,-637.0,16.0,-246.0,16369.14316633586
26.111390113830566,-1024.0,-60.0,16276.0,-614.0,-84.0,-234.0,16308.290897577219
26.134341955184937,-1084.0,-60.0,16204.0,-603.0,-46.0,-240.0,16240.328568104773
26.157785892486572,-1148.0,-16.0,16352.0,-625.0,2.0,-224.0,16392.256220545114
26.18155288696289,-1172.0,-56.0,16332.0,-667.0,86.0,-252.0,16374.09368484253
26.20655083656311,-1280.0,-280.0,16336.0,-631.0,8.0,-250.0,16388.462282959925
26.229197025299072,-1392.0,-8.0,16592.0,-589.0,-113.0,-246.0,16650.29104850723
26.253052473068237,-1140.0,8.0,16360.0,-631.0,-51.0,-241.0,16399.67267966041
26.27826428413391,-1164.0,-100.0,16440.0,-622.0,-69.0,-245.0,16481.45915870315
26.302061557769775,-1112.0,-60.0,16440.0,-612.0,-33.0,-222.0,16477.67410771314
26.3260018825531,-1072.0,-76.0,16292.0,-627.0,-67.0,-236.0,16327.407142593094
26.349549531936646,-1240.0,-40.0,16364.0,-598.0,-63.0,-237.0,16410.962677429987
26.372894525527954,-1244.0,-32.0,16340.0,-613.0,-95.0,-243.0,16387.31704703366
26.396169662475586,-1180.0,-88.0,16252.0,-592.0,-168.0,-231.0,16295.019116282128
26.419902801513672,-1200.0,-76.0,16388.0,-581.0,-161.0,-225.0,16432.05160654019
26.443620681762695,-1100.0,-56.0,16208.0,-582.0,-132.0,-236.0,16245.380881961493
26.46793556213379,-1176.0,-124.0,16220.0,-629.0,-101.0,-222.0,16263.04866868448
26.496254682540894,-1168.0,-96.0,16480.0,-618.0,-20.0,-232.0,16521.61735424229
26.519375562667847,-1132.0,-76.0,16372.0,-632.0,-19.0,-261.0,16411.263936699088
26.5424861907959,-1216.0,-152.0,16416.0,-655.0,55.0,-237.0,16461.677192801468
26.565303087234497,-1160.0,-4.0,16532.0,-623.0,7.0,-240.0,16572.647344344234
26.58834147453308,-1368.0,-60.0,16576.0,-677.0,50.0,-223.0,16632.462235039045
26.611330270767212,-1164.0,-104.0,16348.0,-609.0,-12.0,-229.0,16389.716776076395
26.63534688949585,-1140.0,0.0,16360.0,-637.0,-39.0,-224.0,16399.670728401838
26.659515380859375,-1132.0,-116.0,16192.0,-588.0,-75.0,-249.0,16231.935928902627
26.682390451431274,-1232.0,-100.0,16516.0,-625.0,-57.0,-245.0,16562.188261217176
26.704699754714966,-1168.0,0.0,16380.0,-596.0,-88.0,-229.0,16421.590178785977
26.728086471557617,-1200.0,-28.0,16356.0,-588.0,-133.0,-236.0,16399.98536584713
26.75269842147827,-1172.0,-116.0,16320.0,-556.0,-218.0,-217.0,16362.43991585607
26.775919675827026,-968.0,-48.0,16368.0,-630.0,-17.0,-220.0,16396.668929999167
26.79877734184265,-1160.0,-124.0,16456.0,-572.0,-128.0,-225.0,16497.30014275063
26.82253336906433,-1172.0,0.0,16356.0,-602.0,-104.0,-246.0,16397.936455542203
26.84602403640747,-1100.0,8.0,16324.0,-621.0,-50.0,-239.0,16361.021972969782
26.869791507720947,-1140.0,-24.0,16268.0,-642.0,-10.0,-240.0,16307.912190099627
26.892972230911255,-1236.0,-12.0,16388.0,-679.0,66.0,-245.0,16434.54848786543
26.91638445854187,-1020.0,8.0,16248.0,-523.0,-289.0,-209.0,16279.986732181325
26.939711809158325,-1100.0,-12.0,16384.0,-594.0,-155.0,-230.0,16420.88913548837
26.963541269302368,-1164.0,12.0,16340.0,-617.0,-107.0,-207.0,16381.411416602661
26.98665475845337,-1216.0,-60.0,16324.0,-635.0,-94.0,-227.0,16369.338166217962
27.009188175201416,-1220.0,-52.0,16400.0,-604.0,-111.0,-223.0,16445.39765405507
27.031354188919067,-1168.0,-124.0,16380.0,-598.0,-79.0,-229.0,16422.058336274415
27.05371356010437,-1240.0,-16.0,16336.0,-587.0,-82.0,-235.0,16383.001922724663
27.07635235786438,-1260.0,12.0,16392.0,-606.0,-118.0,-219.0,16440.359120165227
27.09923219680786,-1196.0,-56.0,16336.0,-595.0,-116.0,-234.0,16379.81831401069
27.12116837501526,-1108.0,28.0,16264.0,-588.0,-71.0,-235.0,16301.722117616899
27.14374279975891,-1232.0,-48.0,16296.0,-641.0,-38.0,-239.0,16342.574582971925
27.16694927215576,-1132.0,-40.0,16372.0,-613.0,-82.0,-229.0,16411.136706517314
27.19038701057434,-1128.0,-136.0,16436.0,-625.0,-53.0,-246.0,16475.223094088895
27.212788581848145,-1108.0,-108.0,16428.0,-636.0,8.0,-236.0,16465.676785361724
27.235016345977783,-1232.0,-8.0,16488.0,-623.0,28.0,-241.0,16533.966009400163
27.257869243621826,-1104.0,-100.0,16444.0,-636.0,-25.0,-233.0,16481.321306254544
27.27965259552002,-1176.0,48.0,16404.0,-673.0,61.0,-240.0,16446.169645239588
27.30226445198059,-1252.0,12.0,16464.0,-597.0,-123.0,-238.0,16511.53972226697
27.3251473903656,-1144.0,-92.0,16452.0,-566.0,-119.0,-230.0,16491.98302206257
27.34707474708557,-1112.0,28.0,16344.0,-590.0,-107.0,-220.0,16381.808935523573
27.369181394577026,-1160.0,-80.0,16408.0,-612.0,-89.0,-217.0,16449.147819872007
27.390910863876343,-1148.0,20.0,16308.0,-610.0,-87.0,-242.0,16348.368970634348
27.413394927978516,-1168.0,-104.0,16264.0,-585.0,-108.0,-214.0,16306.217709818546
27.435855865478516,-1016.0,24.0,16432.0,-614.0,-115.0,-232.0,16463.3974622494
27.458192825317383,-1004.0,116.0,16288.0,-609.0,-26.0,-246.0,16319.32645668932
27.480021715164185,-1248.0,-156.0,16244.0,-634.0,-33.0,-235.0,16292.617223761197
27.50182271003723,-1164.0,-100.0,16320.0,-643.0,-55.0,-249.0,16361.763230165629
27.52945828437805,-1164.0,-16.0,16268.0,-628.0,-58.0,-214.0,16309.597665178624
27.55211591720581,-1120.0,0.0,16284.0,-629.0,-17.0,-230.0,16322.47089138161
27.574571132659912,-1184.0,-116.0,16468.0,-634.0,-18.0,-242.0,16510.91566207035
27.596418619155884,-836.0,108.0,16176.0,-606.0,-91.0,-231.0,16197.948512080164
27.619472980499268,-1184.0,-28.0,16272.0,-628.0,-21.0,-233.0,16315.04287459889
27.64141869544983,-1172.0,-96.0,16444.0,-597.0,-161.0,-222.0,16485.992114519526
27.66302800178528,-1176.0,-36.0,16320.0,-609.0,-88.0,-225.0,16362.355331675204
27.684765577316284,-1204.0,60.0,16464.0,-638.0,-55.0,-255.0,16508.074145702158
27.70714783668518,-1108.0,20.0,16288.0,-621.0,-28.0,-234.0,16325.654902637138
27.72994589805603,-1160.0,0.0,16280.0,-606.0,-71.0,-226.0,16321.27446004141
27.752300262451172,-1260.0,-16.0,16360.0,-597.0,-116.0,-236.0,16408.45684395702
27.774493932724,-1056.0,-40.0,16460.0,-610.0,-101.0,-214.0,16493.887837620336
27.797605276107788,-1204.0,-72.0,16244.0,-611.0,-56.0,-242.0,16288.718058828325
27.820597410202026,-1132.0,-44.0,16332.0,-608.0,-51.0,-242.0,16371.242591813243
27.844370126724243,-1188.0,-4.0,16288.0,-602.0,-91.0,-236.0,16331.267678903558
27.86763024330139,-1100.0,-52.0,16468.0,-629.0,-57.0,-236.0,16504.77894429368
27.89040780067444,-1172.0,-92.0,16184.0,-642.0,2.0,-229.0,16226.64179674895
27.913888216018677,-1192.0,48.0,16416.0,-656.0,15.0,-251.0,16459.28989962811
27.937167167663574,-1420.0,-16.0,16428.0,-571.0,-158.0,-240.0,16489.264386260533
27.959558486938477,-1280.0,-80.0,16328.0,-585.0,-207.0,-231.0,16378.290020634022
27.98228693008423,-1140.0,4.0,16336.0,-609.0,-71.0,-253.0,16375.729357802662
28.004555225372314,-1144.0,-76.0,16316.0,-611.0,-79.0,-236.0,16356.233307213492
28.027830362319946,-1168.0,72.0,16336.0,-628.0,-70.0,-242.0,16377.860177691102
28.051267623901367,-1124.0,-132.0,16300.0,-600.0,-96.0,-216.0,16339.241108448092
28.077227354049683,-1160.0,-108.0,16372.0,-600.0,-90.0,-238.0,16413.398429332057
28.10066533088684,-1204.0,-92.0,16548.0,-613.0,-107.0,-219.0,16591.99758919944
28.122895002365112,-1152.0,24.0,16276.0,-583.0,-104.0,-212.0,16316.735457805278
28.145166158676147,-1108.0,-28.0,16356.0,-631.0,-88.0,-239.0,16393.510423335203
28.16763210296631,-1092.0,-100.0,16360.0,-613.0,-68.0,-211.0,16396.70893807657
28.19082546234131,-1164.0,-148.0,16340.0,-601.0,-2.0,-243.0,16382.075570574078
28.213091135025024,-1084.0,-100.0,16348.0,-659.0,-42.0,-226.0,16384.20458856639
28.235527276992798,-1208.0,-68.0,16396.0,-651.0,-15.0,-238.0,16440.581011630944
28.259302139282227,-1132.0,-84.0,16300.0,-629.0,-35.0,-252.0,16339.476123792954
28.28237247467041,-1200.0,-36.0,16384.0,-623.0,-24.0,-236.0,16427.92597986733
28.31035304069519,-1200.0,-56.0,16300.0,-625.0,-61.0,-236.0,16344.208026086795
28.339982748031616,-1184.0,44.0,16368.0,-596.0,-158.0,-216.0,16410.826182736808
28.36549162864685,-1132.0,-116.0,16272.0,-595.0,-131.0,-217.0,16311.740066590075
28.38886022567749,-1128.0,-32.0,16484.0,-593.0,-152.0,-221.0,16522.580428008212
28.411803245544434,-1200.0,-56.0,16492.0,-584.0,-148.0,-229.0,16535.694723839093
28.434357166290283,-992.0,-116.0,16416.0,-605.0,-98.0,-244.0,16446.354489673387
28.457322597503662,-1064.0,-32.0,16300.0,-652.0,-19.0,-241.0,16334.72130157108
28.479865550994873,-1196.0,-24.0,16264.0,-615.0,-35.0,-235.0,16307.933284141189
28.50340247154236,-1148.0,12.0,16476.0,-627.0,-68.0,-226.0,16515.950593290112
28.52575445175171,-1152.0,-60.0,16340.0,-621.0,-50.0,-220.0,16380.668606622869
28.548630237579346,-1060.0,-44.0,16244.0,-631.0,-47.0,-220.0,16278.607802880442
28.57165789604187,-1224.0,-100.0,16412.0,-633.0,-40.0,-217.0,16457.883217473624
28.59465479850769,-1116.0,-44.0,16472.0,-613.0,-34.0,-234.0,16509.820592604876
28.617164611816406,-1256.0,-160.0,16400.0,-629.0,-28.0,-225.0,16448.80348232053
28.63988208770752,-1240.0,-36.0,16520.0,-612.0,-65.0,-233.0,16566.51128029073
28.661834955215454,-1204.0,-104.0,16404.0,-595.0,-93.0,-256.0,16448.454273882395
28.683953046798706,-1132.0,-4.0,16484.0,-599.0,-141.0,-232.0,16522.82348752779
28.70701265335083,-1136.0,-84.0,16140.0,-577.0,-164.0,-226.0,16180.146847294063
28.72909665107727,-1148.0,-60.0,16312.0,-581.0,-149.0,-202.0,16352.456940778044
28.752131462097168,-1060.0,-28.0,16332.0,-602.0,-133.0,-234.0,16366.386528491865
28.774858236312866,-1104.0,-80.0,16364.0,-651.0,-96.0,-228.0,16401.39359932564
28.798134803771973,-1188.0,24.0,16356.0,-633.0,-52.0,-230.0,16399.105341450795
28.821738958358765,-1176.0,-68.0,16532.0,-618.0,-76.0,-242.0,16573.913961403323
28.846691608428955,-1232.0,-12.0,16432.0,-626.0,-65.0,-204.0,16478.124650578415
28.870441198349,-1204.0,-16.0,16436.0,-663.0,-27.0,-236.0,16480.04757274687
28.89622187614441,-1180.0,-64.0,16240.0,-660.0,-12.0,-213.0,16282.938801088703
28.919868230819702,-1144.0,4.0,16340.0,-660.0,38.0,-265.0,16379.99853479847
28.942955493927002,-1316.0,-32.0,16356.0,-543.0,-235.0,-232.0,16408.88832310099
28.965962648391724,-1128.0,-8.0,16428.0,-597.0,-142.0,-230.0,16466.68248312331
28.988864421844482,-1300.0,-132.0,16304.0,-621.0,-78.0,-211.0,16356.278305286933
29.011075735092163,-1116.0,-156.0,16428.0,-621.0,-70.0,-214.0,16466.60183523
29.033681869506836,-1176.0,-112.0,16376.0,-588.0,-100.0,-223.0,16418.553407654403
29.060407638549805,-1164.0,-156.0,16348.0,-570.0,-166.0,-242.0,16390.129224627854
29.083847284317017,-1132.0,-52.0,16364.0,-588.0,-123.0,-208.0,16403.189445958367
29.106520652770996,-1200.0,-8.0,16416.0,-620.0,-95.0,-233.0,16459.803157996757
29.129154443740845,-1168.0,-68.0,16236.0,-624.0,-64.0,-224.0,16278.100134843746
29.15248680114746,-1132.0,-40.0,16344.0,-608.0,-70.0,-242.0,16383.20359392509
29.174813747406006,-1076.0,-60.0,16416.0,-601.0,-88.0,-235.0,16451.33526495646
29.19795536994934,-1032.0,-64.0,16364.0,-608.0,-113.0,-238.0,16396.634288780122
29.220244646072388,-1160.0,-40.0,16316.0,-595.0,-96.0,-223.0,16357.232528762315
29.242631912231445,-1140.0,8.0,16340.0,-639.0,-34.0,-222.0,16379.721120947084
29.26493525505066,-1096.0,-108.0,16400.0,-608.0,-64.0,-249.0,16436.936454217983
29.287282466888428,-1124.0,12.0,16344.0,-625.0,-70.0,-241.0,16382.608339333514
29.31022810935974,-1140.0,-36.0,16416.0,-615.0,-83.0,-224.0,16455.575103897158
29.333504915237427,-1192.0,24.0,16380.0,-609.0,-54.0,-224.0,16423.33218320813
29.357637405395508,-1160.0,-116.0,16340.0,-620.0,-34.0,-230.0,16381.533994104459
29.381741762161255,-1204.0,-64.0,16276.0,-602.0,-102.0,-224.0,16320.597047902384
29.404366493225098,-1108.0,-44.0,16468.0,-611.0,-89.0,-220.0,16505.290788107915
29.426995277404785,-1192.0,-68.0,16344.0,-605.0,-73.0,-257.0,16387.550884741748
29.44926166534424,-1080.0,-40.0,16288.0,-627.0,-31.0,-225.0,16323.81524031683
29.471937894821167,-1156.0,-124.0,16396.0,-612.0,-28.0,-231.0,16437.169099330942
29.495078563690186,-1100.0,-116.0,16384.0,-629.0,-65.0,-237.0,16421.29446785484
29.51811718940735,-1156.0,-116.0,16368.0,-602.0,-104.0,-225.0,16409.18084488071
29.540515184402466,-1228.0,-16.0,16320.0,-589.0,-125.0,-213.0,16366.143100926376
29.563634157180786,-1164.0,-32.0,16380.0,-606.0,-140.0,-256.0,16421.337338962378
29.58620262145996,-1092.0,96.0,16256.0,-602.0,-112.0,-243.0,16292.919198228414
29.60921359062195,-1140.0,-16.0,16456.0,-615.0,-123.0,-232.0,16495.447614417742
29.632848262786865,-1108.0,-88.0,16368.0,-608.0,-104.0,-225.0,16405.695108711487
29.655842781066895,-1152.0,-136.0,16304.0,-635.0,-74.0,-245.0,16345.213856049728
29.67864465713501,-1196.0,-116.0,16352.0,-639.0,-88.0,-239.0,16396.090265670045
29.701512336730957,-1056.0,-160.0,16240.0,-615.0,-45.0,-240.0,16275.083287037274
29.72398066520691,-1140.0,-4.0,16336.0,-649.0,0.0,-243.0,16375.729357802662
29.745912551879883,-1208.0,-28.0,16404.0,-628.0,-9.0,-222.0,16448.44260104889
29.767709493637085,-1156.0,24.0,16296.0,-626.0,-12.0,-236.0,16336.968139774282
29.79133939743042,-1224.0,-16.0,16360.0,-637.0,-32.0,-243.0,16405.731681336252
29.813849210739136,-1312.0,-80.0,16528.0,-622.0,-57.0,-236.0,16580.184799935134
29.836672067642212,-1212.0,-116.0,16320.0,-597.0,-99.0,-232.0,16365.353647263477
29.85951566696167,-1040.0,-84.0,16344.0,-625.0,-46.0,-226.0,16377.270590669252
29.88306188583374,-1348.0,-124.0,16440.0,-619.0,-99.0,-227.0,16495.63821135757
29.906092882156372,-1172.0,-108.0,16460.0,-579.0,-124.0,-218.0,16502.025572638046
29.92944097518921,-1204.0,-64.0,16456.0,-601.0,-108.0,-232.0,16500.110545084237
29.951499223709106,-1172.0,-56.0,16500.0,-615.0,-94.0,-232.0,16541.666179680935
29.973930597305298,-1232.0,-64.0,16416.0,-598.0,-53.0,-223.0,16462.289512701445
29.99711775779724,-1224.0,-88.0,16360.0,-618.0,-80.0,-228.0,16405.95989267315
30.01950216293335,-1256.0,-16.0,16444.0,-625.0,-85.0,-251.0,16491.904923325263
30.042014837265015,-1112.0,56.0,16276.0,-622.0,-69.0,-223.0,16314.038617092949
30.064167737960815,-1168.0,-12.0,16344.0,-616.0,-64.0,-229.0,16385.685948412414
30.087177515029907,-1200.0,-24.0,16372.0,-628.0,-37.0,-251.0,16415.93615971992
30.111665964126587,-1176.0,-32.0,16300.0,-626.0,-69.0,-242.0,16342.398844722888
30.134137630462646,-1200.0,0.0,16456.0,-544.0,-175.0,-233.0,16499.6950274846
30.155820608139038,-1132.0,-4.0,16252.0,-553.0,-188.0,-215.0,16291.37636911013
30.178450345993042,-1076.0,-16.0,16340.0,-612.0,-42.0,-244.0,16375.397155489085
30.200313806533813,-1036.0,-96.0,16348.0,-597.0,-73.0,-229.0,16381.0749342038
30.22274136543274,-1156.0,-16.0,16440.0,-604.0,-97.0,-231.0,16480.60047449728
30.244779348373413,-1120.0,44.0,16520.0,-613.0,-108.0,-243.0,16557.981036346187
30.266671657562256,-1132.0,0.0,16404.0,-629.0,-59.0,-237.0,16443.011889553567
30.28859043121338,-1132.0,8.0,16464.0,-638.0,-49.0,-239.0,16502.871992474524
30.312607049942017,-1156.0,-36.0,16524.0,-616.0,-125.0,-229.0,16564.425978584346
30.335224151611328,-1156.0,-140.0,16328.0,-596.0,-77.0,-236.0,16369.469142278256
30.357253074645996,-1188.0,-52.0,16512.0,-600.0,-89.0,-242.0,16554.763423256765
30.379483699798584,-1156.0,-8.0,16328.0,-612.0,-84.0,-226.0,16368.872410767945
30.401302576065063,-1132.0,-84.0,16508.0,-617.0,-71.0,-232.0,16546.97990571089
30.42299795150757,-1132.0,-8.0,16508.0,-646.0,-66.0,-226.0,16546.76862713684
30.44609785079956,-1116.0,-104.0,16420.0,-642.0,-46.0,-238.0,16458.209866203553
30.468551874160767,-1164.0,-40.0,16256.0,-655.0,-11.0,-253.0,16297.66952665319
30.490764617919922,-1120.0,-56.0,16432.0,-628.0,-82.0,-215.0,16470.22039925392
30.512665271759033,-1148.0,-120.0,16316.0,-614.0,-79.0,-226.0,16356.777188676258
30.535075426101685,-1144.0,-44.0,16424.0,-583.0,-159.0,-220.0,16463.852769020985
30.557300090789795,-1060.0,-100.0,16312.0,-588.0,-145.0,-239.0,16346.710494775394
30.580169916152954,-1232.0,-136.0,16436.0,-600.0,-145.0,-246.0,16482.6701720322
30.60322880744934,-1208.0,-124.0,16376.0,-622.0,-111.0,-229.0,16420.962700158598
30.625352382659912,-1216.0,-40.0,16308.0,-636.0,-80.0,-220.0,16353.321375182473
30.647278308868408,-1108.0,-24.0,16400.0,-601.0,-101.0,-254.0,16437.403687930768
30.66939353942871,-1184.0,-88.0,16384.0,-612.0,-50.0,-231.0,16426.96125276979
30.691588163375854,-1296.0,-52.0,16412.0,-637.0,-32.0,-262.0,16463.172962706794
30.71333622932434,-1112.0,-40.0,16448.0,-666.0,48.0,-253.0,16485.595166690222
30.73510217666626,-1296.0,-56.0,16412.0,-640.0,3.0,-272.0,16463.18608289416
30.756956815719604,-1324.0,-124.0,16388.0,-625.0,-96.0,-243.0,16441.864127890123
30.77858281135559,-1172.0,-40.0,16396.0,-622.0,-91.0,-208.0,16437.88307538413
30.801132678985596,-1288.0,-28.0,16400.0,-633.0,-60.0,-243.0,16450.52363908213
30.823265314102173,-1220.0,-84.0,16332.0,-630.0,-69.0,-236.0,16377.719010900144
30.845566272735596,-1236.0,-52.0,16296.0,-624.0,-82.0,-249.0,16342.88885111809
30.86759901046753,-1204.0,-64.0,16508.0,-614.0,-106.0,-222.0,16551.97196711014
30.89032816886902,-1156.0,-228.0,16396.0,-614.0,-99.0,-226.0,16438.282635360665
30.91276240348816,-1156.0,-56.0,16376.0,-607.0,-89.0,-220.0,16416.84646940453
30.935336351394653,-1148.0,24.0,16368.0,-599.0,-77.0,-250.0,16408.22671710749
30.95834755897522,-1336.0,-144.0,16416.0,-578.0,-177.0,-220.0,16470.904286043315
30.980178833007812,-1152.0,-172.0,16364.0,-594.0,-89.0,-226.0,16405.401061845456
31.00218439102173,-1192.0,-112.0,16248.0,-523.0,-278.0,-205.0,16292.050576891786
31.02447009086609,-1060.0,-32.0,16192.0,-662.0,92.0,-240.0,16226.690605295955
31.046568155288696,-1160.0,-84.0,16380.0,-653.0,-5.0,-255.0,16421.237955769353
31.069236755371094,-1180.0,-52.0,16432.0,-696.0,133.0,-253.0,16474.396134608392
31.09234929084778,-1272.0,-172.0,16400.0,-536.0,-234.0,-228.0,16450.15404183195
31.115363121032715,-1036.0,-112.0,16180.0,-648.0,-26.0,-266.0,16213.520284009886
31.137222290039062,-1188.0,-88.0,16276.0,-578.0,-116.0,-243.0,16319.536267921341
31.159672021865845,-1260.0,-72.0,16336.0,-653.0,9.0,-241.0,16384.678208619174
31.183644771575928,-1036.0,100.0,16276.0,-659.0,16.0,-257.0,16309.244985590229
31.208033323287964,-1176.0,-68.0,16400.0,-634.0,-25.0,-224.0,16442.250454241355
31.23234486579895,-1064.0,-28.0,16424.0,-636.0,-55.0,-232.0,16458.45241813458
31.256754398345947,-1176.0,48.0,16360.0,-636.0,-73.0,-240.0,16402.282767956418
31.28068232536316,-1132.0,-84.0,16300.0,-598.0,-94.0,-247.0,16339.476123792954
31.304959535598755,-1220.0,0.0,16432.0,-629.0,-71.0,-247.0,16477.227436677567
31.330344915390015,-1196.0,-80.0,16260.0,-611.0,-70.0,-261.0,16304.122668822141
31.354900598526,-1156.0,-48.0,16480.0,-640.0,-74.0,-239.0,16520.564155016014
31.379687786102295,-1168.0,-64.0,16440.0,-612.0,-72.0,-243.0,16481.563032673814
31.406219005584717,-1176.0,16.0,16460.0,-621.0,-66.0,-239.0,16501.964489114624
31.43170428276062,-1188.0,-76.0,16476.0,-621.0,-80.0,-228.0,16518.94960341002
31.456700325012207,-1172.0,-76.0,16340.0,-639.0,-78.0,-246.0,16382.15370456522
31.480676651000977,-1116.0,-84.0,16360.0,-632.0,-57.0,-237.0,16398.235026977753
31.504844903945923,-1144.0,-40.0,16336.0,-614.0,-43.0,-242.0,16376.056668197018
31.529513835906982,-1116.0,-100.0,16268.0,-622.0,-54.0,-237.0,16306.541018867245
31.55396342277527,-1212.0,16.0,16412.0,-614.0,-46.0,-221.0,16456.699061476455
31.579556703567505,-1224.0,-112.0,16272.0,-582.0,-54.0,-230.0,16318.354819037366
31.603720664978027,-1184.0,-52.0,16352.0,-628.0,-66.0,-233.0,16394.89139945733
31.628395080566406,-1236.0,-48.0,16304.0,-611.0,-51.0,-257.0,16350.853678019383
31.65286612510681,-1156.0,-140.0,16436.0,-610.0,-47.0,-239.0,16477.197334498363
31.67702865600586,-1200.0,-68.0,16364.0,-607.0,-56.0,-232.0,16408.0809359291
31.701951026916504,-1188.0,-88.0,16384.0,-611.0,-107.0,-226.0,16427.25004375352
31.726205587387085,-1120.0,40.0,16468.0,-604.0,-86.0,-224.0,16506.09051229273
31.750126123428345,-1264.0,-68.0,16384.0,-587.0,-98.0,-246.0,16432.82617202531
31.774791955947876,-1240.0,-124.0,16424.0,-591.0,-175.0,-234.0,16471.2097916334
31.799566984176636,-1184.0,24.0,16368.0,-615.0,-86.0,-228.0,16410.78474662318
31.82560086250305,-1156.0,-128.0,16356.0,-606.0,-69.0,-234.0,16397.300265592505
31.850995302200317,-1108.0,36.0,16324.0,-615.0,-87.0,-232.0,16361.599432818297
31.87624454498291,-1212.0,4.0,16348.0,-623.0,-12.0,-247.0,16392.86625334325
31.90123987197876,-1264.0,-32.0,16416.0,-619.0,-74.0,-263.0,16464.62195132339
31.926607131958008,-1216.0,12.0,16368.0,-606.0,-104.0,-228.0,16413.11134428814
31.951279640197754,-1164.0,-60.0,16376.0,-630.0,-37.0,-234.0,16417.425864001943
31.976356267929077,-1180.0,-48.0,16424.0,-659.0,10.0,-234.0,16466.40458630845
32.00046682357788,-1144.0,-52.0,16392.0,-633.0,-5.0,-243.0,16431.95374871777
32.02490019798279,-1108.0,-160.0,16396.0,-651.0,-9.0,-256.0,16434.174150227325
32.04951548576355,-808.0,28.0,16216.0,-611.0,-81.0,-223.0,16236.141906253468
32.0749192237854,-1140.0,-40.0,16284.0,-602.0,-81.0,-255.0,16323.904434907723
32.099815368652344,-1052.0,12.0,16468.0,-637.0,-65.0,-255.0,16501.571803922194
32.12516927719116,-1204.0,48.0,16292.0,-601.0,-82.0,-216.0,16336.498523245427
32.150432109832764,-1132.0,44.0,16344.0,-599.0,-67.0,-241.0,16383.213848326584
32.17528486251831,-1112.0,-52.0,16384.0,-622.0,-83.0,-220.0,16421.775299887646
32.20048952102661,-1168.0,-108.0,16440.0,-604.0,-110.0,-243.0,16481.792620949942
32.22508239746094,-1092.0,-32.0,16192.0,-589.0,-89.0,-229.0,16228.812402637477
32.24897527694702,-1108.0,60.0,16440.0,-624.0,-49.0,-236.0,16477.404650004806
32.274343490600586,-1236.0,-84.0,16416.0,-644.0,-48.0,-223.0,16462.67924731573
32.29893445968628,-1128.0,20.0,16396.0,-623.0,-120.0,-227.0,16434.768023918074
32.32442116737366,-1224.0,-52.0,16372.0,-602.0,-129.0,-241.0,16417.772808758196
32.349021434783936,-1108.0,-80.0,16196.0,-584.0,-108.0,-230.0,16234.053098348546
32.37328290939331,-1112.0,-8.0,16556.0,-616.0,-85.0,-237.0,16593.304191751562
32.398266315460205,-1080.0,-120.0,16212.0,-630.0,-111.0,-241.0,16248.376657377192
32.42271375656128,-1096.0,-72.0,16368.0,-573.0,-141.0,-215.0,16404.81100165436
32.4476478099823,-1144.0,-56.0,16408.0,-598.0,-89.0,-220.0,16447.928015406684
32.47220039367676,-1188.0,-32.0,16336.0,-646.0,-50.0,-240.0,16379.171651826597
32.49613165855408,-1088.0,-80.0,16204.0,-608.0,-48.0,-235.0,16240.682251678962
32.5204598903656,-1136.0,-112.0,16544.0,-620.0,-78.0,-232.0,16583.334284757093
32.54479098320007,-1108.0,-128.0,16336.0,-642.0,-44.0,-245.0,16374.032612646159
32.56939768791199,-1148.0,-52.0,16560.0,-627.0,-26.0,-233.0,16599.825541251932
32.59460115432739,-1208.0,-20.0,16300.0,-608.0,18.0,-243.0,16344.713640807538
32.622355699539185,-1132.0,56.0,16292.0,-654.0,12.0,-237.0,16331.375447279386
32.64786887168884,-952.0,160.0,16388.0,-558.0,-148.0,-225.0,16416.407889669408
32.67316818237305,-1156.0,-64.0,16464.0,-619.0,-91.0,-227.0,16504.65776682449
32.69783115386963,-1184.0,-64.0,16420.0,-607.0,-83.0,-247.0,16462.756512807933
32.72239637374878,-1072.0,-92.0,16320.0,-608.0,-65.0,-246.0,16355.428701198878
32.74727725982666,-1216.0,-24.0,16344.0,-616.0,-74.0,-223.0,16389.190584040447
32.77255725860596,-1292.0,-32.0,16396.0,-612.0,-75.0,-223.0,16446.856964174036
32.79785084724426,-1236.0,-60.0,16456.0,-625.0,-60.0,-218.0,16502.461392168138
32.82400631904602,-1176.0,-28.0,16308.0,-602.0,-87.0,-232.0,16350.370760322226
32.850319147109985,-1068.0,-8.0,16464.0,-637.0,-80.0,-232.0,16498.60551683081
32.87627553939819,-1216.0,36.0,16392.0,-601.0,-78.0,-245.0,16437.080519362313
32.90228319168091,-1244.0,-76.0,16308.0,-622.0,-82.0,-241.0,16355.554897342981
32.92844820022583,-1104.0,-116.0,16428.0,-623.0,-49.0,-247.0,16465.462520075165
32.95569658279419,-1196.0,-36.0,16512.0,-629.0,-50.0,-247.0,16555.296916697083
32.98130249977112,-1128.0,-44.0,16368.0,-633.0,-79.0,-232.0,16406.88099548479
33.00649952888489,-1092.0,48.0,16284.0,-595.0,-63.0,-216.0,16320.644104936546
33.03191781044006,-1200.0,40.0,16344.0,-637.0,-69.0,-235.0,16388.042470045042
33.057279109954834,-1128.0,-40.0,16404.0,-622.0,-65.0,-244.0,16442.78565207246
33.08310627937317,-1112.0,-88.0,16464.0,-621.0,-50.0,-232.0,16501.744877436446
33.108211517333984,-1168.0,-92.0,16368.0,-620.0,-63.0,-218.0,16409.878488276507
33.13353776931763,-1080.0,-128.0,16488.0,-636.0,-85.0,-235.0,16523.829096187117
33.158406496047974,-1168.0,-44.0,16316.0,-614.0,-62.0,-235.0,16357.812078636922
33.18372917175293,-1092.0,-220.0,16336.0,-637.0,-85.0,-246.0,16373.935385239554
33.208802700042725,-1228.0,-32.0,16348.0,-627.0,-70.0,-230.0,16394.087714783032
33.23353838920593,-1232.0,-32.0,16288.0,-629.0,-75.0,-251.0,16334.558212574957
33.25902485847473,-1260.0,-60.0,16376.0,-622.0,-68.0,-209.0,16424.511438700392
33.284668922424316,-1104.0,-4.0,16384.0,-612.0,-88.0,-223.0,16421.153674452962
33.310540199279785,-1160.0,-64.0,16296.0,-611.0,-48.0,-228.0,16337.359394957313
33.336703062057495,-1140.0,-64.0,16376.0,-610.0,-82.0,-240.0,16415.75682081091
33.36163640022278,-1208.0,-8.0,16392.0,-617.0,-106.0,-251.0,16436.453145371725
33.387436389923096,-1192.0,-108.0,16276.0,-599.0,-73.0,-233.0,16319.948039132967
33.412529706954956,-1172.0,-24.0,16368.0,-615.0,-82.0,-245.0,16409.923339248115
33.43717050552368,-1156.0,-160.0,16428.0,-619.0,-82.0,-224.0,16469.399503321303
33.46250319480896,-1152.0,-44.0,16436.0,-592.0,-112.0,-229.0,16476.381156067007
33.487186431884766,-1132.0,-52.0,16352.0,-591.0,-112.0,-248.0,16391.218136551048
33.51215600967407,-1192.0,-76.0,16420.0,-594.0,-118.0,-215.0,16463.3848281573
33.53628087043762,-1104.0,-64.0,16456.0,-586.0,-121.0,-220.0,16493.11516967004
33.56060481071472,-956.0,12.0,16312.0,-640.0,20.0,-235.0,16339.994614442197
33.58536338806152,-1188.0,80.0,16392.0,-618.0,-70.0,-232.0,16435.18810357825
33.609652042388916,-1100.0,-20.0,16356.0,-601.0,-82.0,-213.0,16392.959952369798
33.63372039794922,-1232.0,-52.0,16360.0,-622.0,-99.0,-231.0,16406.405090695524
33.6580023765564,-1204.0,-24.0,16368.0,-613.0,-80.0,-239.0,16412.239822766423
33.682639598846436,-1036.0,-108.0,16396.0,-633.0,-83.0,-231.0,16429.052802885504
33.706948041915894,-1188.0,-68.0,16364.0,-642.0,-79.0,-235.0,16407.207684429424
33.73150706291199,-1116.0,4.0,16344.0,-619.0,-51.0,-238.0,16382.057502035574
33.75542378425598,-1180.0,4.0,16460.0,-629.0,-68.0,-246.0,16502.242756667954
33.77914118766785,-1184.0,16.0,16388.0,-631.0,-40.0,-215.0,16430.72292992612
33.80406737327576,-1188.0,-120.0,16336.0,-628.0,-27.0,-245.0,16379.579970194596
33.82992911338806,-1212.0,-148.0,16352.0,-638.0,-17.0,-252.0,16397.522739731146
33.85515308380127,-1140.0,12.0,16408.0,-627.0,-3.0,-232.0,16447.55933261832
33.87971901893616,-1208.0,-104.0,16420.0,-621.0,-42.0,-254.0,16464.7040665783
33.90443420410156,-1288.0,-108.0,16484.0,-624.0,-55.0,-225.0,16534.59597329188
33.930160999298096,-1256.0,-36.0,16464.0,-631.0,-30.0,-218.0,16511.87839102505
33.95550990104675,-1196.0,-104.0,16404.0,-601.0,-95.0,-225.0,16447.870622059258
33.98099064826965,-1112.0,-28.0,16296.0,-616.0,-147.0,-227.0,16333.920043884138
34.006226539611816,-1124.0,-136.0,16292.0,-592.0,-136.0,-215.0,16331.293151492933
34.03030586242676,-1260.0,-100.0,16300.0,-620.0,-137.0,-222.0,16348.932686875924
34.057095527648926,-1100.0,-52.0,16276.0,-584.0,-130.0,-239.0,16313.211823549647
34.08315658569336,-1124.0,88.0,16284.0,-617.0,-65.0,-206.0,16322.983060703089
34.10873198509216,-1132.0,-72.0,16420.0,-566.0,-80.0,-213.0,16459.131447315194
34.133708477020264,-1104.0,-56.0,16292.0,-626.0,-103.0,-237.0,16329.458533582796
34.16062378883362,-1136.0,24.0,16452.0,-618.0,-50.0,-228.0,16491.190860577655
34.18498468399048,-1064.0,-80.0,16400.0,-611.0,-117.0,-222.0,16434.673589700527
34.20959234237671,-1268.0,-28.0,16388.0,-620.0,-57.0,-236.0,16437.00556670831
34.23427724838257,-1176.0,-40.0,16356.0,-635.0,-57.0,-214.0,16398.271616240538
34.260162591934204,-1240.0,-156.0,16348.0,-613.0,-40.0,-233.0,16395.701875796596
34.28459334373474,-1172.0,-40.0,16320.0,-622.0,-65.0,-230.0,16362.077618688892
34.309606075286865,-1120.0,-92.0,16556.0,-633.0,-97.0,-209.0,16594.095335389633
34.33543395996094,-1280.0,64.0,16364.0,-614.0,-72.0,-245.0,16414.10954027053
34.3605523109436,-1096.0,-40.0,16444.0,-643.0,-58.0,-239.0,16480.532515668296
34.385607957839966,-1156.0,-4.0,16260.0,-592.0,-75.0,-234.0,16301.041439122839
34.40964436531067,-1140.0,-64.0,16324.0,-609.0,-58.0,-224.0,16363.883157734903
34.435413122177124,-1224.0,-148.0,16376.0,-621.0,-70.0,-220.0,16422.346239194932
34.459871768951416,-1176.0,-40.0,16352.0,-607.0,-69.0,-245.0,16394.281929990102
34.485363483428955,-1196.0,-68.0,16408.0,-636.0,-36.0,-234.0,16451.671769154647
34.50933599472046,-1112.0,36.0,16424.0,-643.0,-6.0,-240.0,16461.640744470158
34.53467655181885,-1204.0,-44.0,16444.0,-663.0,-36.0,-236.0,16488.077146835527
34.56018567085266,-1124.0,-112.0,16304.0,-651.0,1.0,-234.0,16343.082206242494
34.585161209106445,-1352.0,-44.0,16588.0,-533.0,-321.0,-218.0,16643.064140956736
34.60943031311035,-1260.0,-20.0,16356.0,-593.0,-166.0,-221.0,16404.47304853161
34.63432574272156,-1136.0,-40.0,16348.0,-604.0,-95.0,-234.0,16387.470823772655
34.66525316238403,-1228.0,88.0,16348.0,-595.0,-67.0,-239.0,16394.29266543696
34.69617581367493,-1172.0,-100.0,16340.0,-615.0,-68.0,-232.0,16382.282624835892
34.72477340698242,-1164.0,0.0,16352.0,-596.0,-86.0,-225.0,16393.376711342906
34.74956512451172,-1164.0,-96.0,16400.0,-610.0,-102.0,-250.0,16441.53618126968
34.77374458312988,-1032.0,-136.0,16492.0,-602.0,-128.0,-236.0,16524.81721532798
34.798190116882324,-1168.0,-48.0,16336.0,-589.0,-134.0,-232.0,16377.772253881172
34.823739767074585,-1132.0,-104.0,16320.0,-601.0,-91.0,-227.0,16359.542780897025
34.85201692581177,-1144.0,-20.0,16260.0,-582.0,-86.0,-255.0,16300.206624457249
34.87744212150574,-1192.0,-92.0,16464.0,-614.0,-84.0,-224.0,16507.35060510923
34.90216684341431,-1148.0,-88.0,16360.0,-630.0,-70.0,-237.0,16400.464871460197
34.92774033546448,-1144.0,0.0,16336.0,-617.0,-37.0,-220.0,16376.007816314695
34.95412635803223,-1208.0,-84.0,16364.0,-628.0,-62.0,-232.0,16408.742060255565
34.97974133491516,-1148.0,36.0,16464.0,-640.0,-28.0,-243.0,16504.01454192282
35.00531578063965,-1060.0,20.0,16196.0,-628.0,-41.0,-252.0,16230.662833045359
35.03102731704712,-1184.0,-108.0,16540.0,-635.0,-31.0,-238.0,16582.675296827107
35.055824518203735,-1092.0,16.0,16416.0,-628.0,-32.0,-217.0,16452.287865218015
35.08082866668701,-1096.0,-76.0,16320.0,-620.0,-62.0,-220.0,16356.937121600731
35.10619139671326,-1168.0,-4.0,16476.0,-658.0,-35.0,-244.0,16517.348939826876
35.130855560302734,-1028.0,24.0,16368.0,-576.0,-178.0,-245.0,16400.267802691516
35.15511679649353,-1188.0,-76.0,16372.0,-633.0,-18.0,-233.0,16415.221716443553
35.17944121360779,-1160.0,-68.0,16344.0,-606.0,-80.0,-241.0,16385.254346515343
35.203569173812866,-1080.0,-76.0,16368.0,-607.0,-89.0,-233.0,16403.767859854637
35.22919774055481,-1200.0,-72.0,16560.0,-620.0,-77.0,-230.0,16603.577445839797
35.25413465499878,-1228.0,-112.0,16380.0,-620.0,-98.0,-235.0,16426.348589994064
35.2788290977478,-1088.0,-68.0,16308.0,-624.0,-96.0,-245.0,16344.394513104486
35.30287265777588,-1212.0,-64.0,16432.0,-613.0,-82.0,-230.0,16476.76133225216
35.32725238800049,-1064.0,-112.0,16236.0,-650.0,-25.0,-236.0,16271.211878652432
35.35231614112854,-1216.0,12.0,16340.0,-613.0,-52.0,-234.0,16385.188433460262
35.37654685974121,-1172.0,-112.0,16292.0,-586.0,-42.0,-226.0,16334.48474853125
35.40165138244629,-1124.0,-112.0,16392.0,-592.0,-69.0,-233.0,16430.872892211173
35.426114082336426,-1188.0,4.0,16392.0,-591.0,-46.0,-229.0,16434.993885000382
35.45087289810181,-1088.0,-28.0,16356.0,-624.0,-103.0,-244.0,16392.170814141733
35.476524114608765,-1104.0,-96.0,16432.0,-623.0,-77.0,-220.0,16469.324697752487
35.50060439109802,-1112.0,-44.0,16452.0,-629.0,-73.0,-225.0,16489.596235202363
35.524511098861694,-1144.0,-20.0,16348.0,-610.0,-79.0,-240.0,16387.99072491805
35.54864859580994,-1208.0,-32.0,16396.0,-610.0,-103.0,-198.0,16440.471526084646
35.57357573509216,-1184.0,28.0,16304.0,-600.0,-105.0,-226.0,16346.958616207481
35.597625732421875,-1232.0,-112.0,16436.0,-605.0,-96.0,-224.0,16482.48961777316
35.62160682678223,-1160.0,12.0,16536.0,-592.0,-120.0,-244.0,16576.641396857205
35.64545655250549,-1156.0,-68.0,16324.0,-605.0,-114.0,-252.0,16365.021723175316
35.669687032699585,-1144.0,40.0,16328.0,-590.0,-85.0,-229.0,16368.076246156725
35.694730281829834,-1156.0,-16.0,16320.0,-625.0,-73.0,-226.0,16360.898263848474
35.718570709228516,-1068.0,8.0,16452.0,-632.0,-66.0,-245.0,16486.630704907537
35.74290609359741,-1172.0,-52.0,16312.0,-629.0,-43.0,-238.0,16354.131954952547
35.766653299331665,-1116.0,-88.0,16416.0,-642.0,-51.0,-227.0,16454.12580479437
35.79229021072388,-1216.0,-76.0,16432.0,-623.0,-32.0,-237.0,16477.10702763079
35.817323446273804,-1116.0,-80.0,16416.0,-642.0,0.0,-231.0,16454.08496392309
35.842447996139526,-1092.0,-40.0,16352.0,-651.0,0.0,-248.0,16388.47058147892
35.86783313751221,-1192.0,24.0,16376.0,-670.0,4.0,-241.0,16419.342739586136
35.89288663864136,-584.0,-40.0,16076.0,-705.0,142.0,-255.0,16086.653847211359
35.91680693626404,-1168.0,-20.0,16352.0,-638.0,-50.0,-250.0,16393.673413850844
35.94021511077881,-1096.0,-140.0,16336.0,-627.0,-31.0,-211.0,16373.3231813215
35.96357774734497,-1132.0,-12.0,16312.0,-576.0,-67.0,-249.0,16351.235794275612
35.98702120780945,-1092.0,-112.0,16400.0,-620.0,-57.0,-226.0,16436.69699179248
36.011656761169434,-1152.0,-88.0,16288.0,-598.0,-84.0,-243.0,16328.925010544937
36.03547739982605,-1216.0,-92.0,16476.0,-592.0,-110.0,-232.0,16521.068246333227
36.059367656707764,-1116.0,-80.0,16348.0,-591.0,-117.0,-248.0,16386.243010525628
36.082770347595215,-1212.0,-60.0,16412.0,-607.0,-77.0,-243.0,16456.80066112487
36.10619592666626,-1220.0,-124.0,16436.0,-597.0,-142.0,-213.0,16481.682923779354
36.12951707839966,-1136.0,-16.0,16360.0,-610.0,-83.0,-219.0,16399.40096466941
36.152547121047974,-1144.0,-36.0,16400.0,-589.0,-95.0,-232.0,16439.89148382677
36.18015384674072,-1192.0,40.0,16308.0,-601.0,-125.0,-218.0,16351.554299209602
36.204211950302124,-1040.0,0.0,16236.0,-582.0,-95.0,-229.0,16269.274599686367
36.22911286354065,-1148.0,-24.0,16376.0,-622.0,-94.0,-232.0,16416.207113703214
36.25276231765747,-1124.0,-64.0,16280.0,-618.0,-102.0,-255.0,16318.880843979467
36.2756884098053,-1184.0,-44.0,16428.0,-617.0,-72.0,-239.0,16470.670174586096
36.2982382774353,-1184.0,-76.0,16432.0,-619.0,-83.0,-226.0,16474.776356600414
36.32122302055359,-1204.0,-28.0,16320.0,-635.0,-47.0,-243.0,16364.37594288276
36.34528136253357,-1108.0,-44.0,16340.0,-626.0,-68.0,-251.0,16377.58223914629
36.36853051185608,-1204.0,72.0,16388.0,-634.0,-30.0,-227.0,16432.326189556974
36.39087462425232,-1220.0,56.0,16384.0,-635.0,-28.0,-231.0,16429.455012263796
36.41361165046692,-1072.0,-40.0,16404.0,-604.0,-41.0,-225.0,16439.038901347
36.44277906417847,-1116.0,-40.0,16344.0,-631.0,-11.0,-248.0,16382.10584753987
36.46532344818115,-1136.0,-84.0,16272.0,-622.0,-51.0,-225.0,16311.821970583176
36.488747358322144,-1208.0,-60.0,16500.0,-619.0,-71.0,-232.0,16544.269823718423
36.5107626914978,-1304.0,-60.0,16368.0,-617.0,-65.0,-234.0,16419.97076733086
36.532854318618774,-1092.0,-88.0,16204.0,-612.0,-94.0,-207.0,16240.992087923692
36.555335998535156,-1140.0,-40.0,16404.0,-616.0,-97.0,-252.0,16443.613228241535
36.577884912490845,-1208.0,24.0,16424.0,-609.0,-103.0,-239.0,16468.382312783488
36.60012102127075,-1132.0,-96.0,16336.0,-597.0,-134.0,-234.0,16375.455291380451
36.62315487861633,-1156.0,-76.0,16400.0,-616.0,-100.0,-244.0,16440.867130416205
36.646066665649414,-1152.0,-104.0,16424.0,-590.0,-100.0,-228.0,16464.680258055425
36.6682493686676,-1148.0,12.0,16256.0,-610.0,-97.0,-224.0,16296.48992881596
36.69098114967346,-1164.0,-24.0,16508.0,-613.0,-71.0,-220.0,16549.0040787958
36.721773862838745,-1128.0,-52.0,16336.0,-612.0,-92.0,-227.0,16374.98042746922
36.74531602859497,-948.0,-64.0,16228.0,-667.0,1.0,-242.0,16255.792321508048
36.77296328544617,-1144.0,-68.0,16452.0,-584.0,-50.0,-224.0,16491.866601449336
36.806305170059204,-1184.0,-188.0,16372.0,-638.0,-12.0,-236.0,16415.833332487266
36.83288812637329,-1100.0,-88.0,16388.0,-636.0,11.0,-238.0,16425.111506470817
36.85727906227112,-1240.0,-4.0,16536.0,-666.0,35.0,-255.0,16582.427807772903
36.88097405433655,-1036.0,-8.0,16296.0,-572.0,-210.0,-223.0,16328.90002419024
36.90407609939575,-1056.0,-16.0,16456.0,-618.0,-54.0,-245.0,16489.855305611385
36.92801785469055,-1092.0,-104.0,16440.0,-644.0,-62.0,-234.0,16476.555465266396
36.95144820213318,-1200.0,-4.0,16204.0,-630.0,-63.0,-218.0,16248.373210878683
36.97441077232361,-1064.0,-160.0,16244.0,-633.0,-76.0,-240.0,16279.595572372184
36.99761939048767,-1204.0,-4.0,16340.0,-624.0,-54.0,-240.0,16384.298337127533
37.02133655548096,-1044.0,-76.0,16260.0,-584.0,-67.0,-237.0,16293.658643779181
